time	accX	accY	accZ	pitch	roll	yaw							
0.05	0.01870728	-0.001266479	-0.9897614	-0.003119618	-0.000701208	-0.000956453							
0.1	0.01766968	-0.003250122	-0.9897919	-0.01055569	-0.007810829	0.003565242							
0.15	0.01582336	0.000610352	-0.991806	-0.000713312	0.001692785	0.000235375							
0.2	0.01475525	0.001617432	-0.9879608	-0.01659584	-0.003081363	0.001260528							
0.25	0.01879883	0.001617432	-0.9917297	-0.01409057	-0.007857784	-0.001082925							
0.3	0.01571655	-0.001296997	-0.9888763	-0.003079572	-0.01261101	-0.002221888							
0.35	0.01582336	0.003601074	-0.9879456	-0.01274896	-0.006707388	-0.005692635							
0.4	0.01280212	0.000595093	-0.9899445	-0.001747171	0.000439163	-0.006723952							
0.45	0.01473999	0.002624512	-0.9860077	-0.000648258	-0.003086891	-0.002122413							
0.5	0.01571655	0.001663208	-0.9859924	0.002952827	-0.00782044	0.000168313							
0.55	0.0148468	0.00453186	-0.9889374	0.000180895	0.0184619	0.01196036							
0.6	0.01382446	0.001586914	-0.9899292	-0.001819412	-0.006728234	-0.005646252							
0.65	0.01654053	-0.002212524	-0.9879761	-0.008192349	-0.01140465	0.004687816							
0.7	0.01557922	-0.004196167	-0.9929199	0.000527339	-0.006693352	-0.002162491							
0.75	0.0128479	0.001541138	-0.9899902	-0.008216329	-0.009040909	0.00469981							
0.8	0.0158844	0.004547119	-0.9879608	-0.004312444	-0.005548682	-0.004502365							
0.85	0.01779175	0.001617432	-0.98703	0.03226355	0.04448021	-0.005002164							
0.9	0.0173645	-0.006057739	-0.9860382	0.02133441	0.0432413	-0.007396712							
0.95	0.01982117	-0.005340576	-0.9928284	0.005349945	0.04920839	-0.002803633							
1	0.02331543	-0.005996704	-0.9880219	0.0103572	0.008723368	-0.006614227							
1.05	0.02468872	-0.001251221	-0.9860077	-0.005176671	-0.00085262	-0.01718397							
1.1	0.01678467	-0.004333496	-0.9888611	-0.03792143	-0.02434549	0.02175578							
1.15	0.03573608	-0.02742004	-0.9859772	-0.003748812	-0.01240304	0.02089686							
1.2	0.004089355	-0.1110077	-0.9859467	-0.008121469	0.01211908	0.09399669							
1.25	0.01269531	-0.1587677	-0.98703	0.01679112	-0.004624446	0.2119886							
1.3	0.02729797	-0.133255	-0.9879761	-0.003182551	0.000624561	0.1378826							
1.35	-0.03123474	-0.1269073	-0.9918823	0.01571359	0.02431773	0.1162359							
1.4	-0.01670837	-0.09237671	-0.9879761	-0.01261693	-0.01141323	-0.1457083							
1.45	0.03544617	-0.02323914	-0.9929199	0.004780118	0.05198226	-0.2491449							
1.5	0.003189087	-0.04908752	-0.9899902	-0.04932735	0.01361134	-0.1410436							
1.55	0.03547668	-7.63E-05	-0.9879608	-0.08858907	0.04259306	-0.08778054							
1.6	0.08059692	0.03884888	-0.98703	-0.04553408	0.02550878	-0.1455246							
1.65	-0.01550293	0.06230164	-0.9860382	-0.05934445	-0.009613888	0.05191214							
1.7	0.1038971	-0.1089935	-0.9928284	0.03895913	-0.07674298	-0.0187233							
1.75	0.01000977	-0.01579285	-0.9880219	0.04524948	-0.0266678	0.383229							
1.8	-0.1068878	-0.02113342	-0.9860077	-0.09147836	0.03457067	0.2037041							
1.85	0.05778503	0.07872009	-0.9888611	-0.03253676	-0.005279913	-0.2648811							
1.9	0.02854919	-0.005493164	-0.9859772	0.01566837	-0.02988571	0.03129536							
1.95	0.09689331	-0.01921082	-0.9859467	-0.0536158	-0.005867349	0.06699324							
2	-0.04272461	0.03015137	-0.98703	-0.01003857	0.02917866	-0.01227378							
2.05	-0.05743408	0.07757568	-0.9879761	0.06741355	-0.0113585	-0.03310416							
2.1	0.04180908	0.1157532	-0.9918823	-0.007698616	-0.01132428	-0.2799436							
2.15	-0.005264282	0.06549072	-0.984024	0.008759108	-0.01465975	-0.2567442							
2.2	0.0599823	0.1518707	-0.9967651	-0.026217	-0.02283243	-0.3611698							
2.25	0.0177002	0.09617615	-0.99086	0.02253448	-0.03134961	0.004607994							
2.3	0.02876282	0.1260223	-0.9890137	-0.02803186	-0.005522405	-0.1574061							
2.35	0.04614258	0.1477203	-0.9888763	-0.04838261	-0.01872457	-0.03500625							
2.4	0.02212524	0.1104889	-0.9879456	-0.03694524	-0.01410412	-0.05225465							
2.45	0.02178955	0.0506897	-0.9899445	-0.002813244	0.000272287	0.08342206							
2.5	0.02027893	0.02418518	-0.9860077	-0.0367343	-0.01413395	0.07500444							
2.55	0.007461548	-0.01473999	-0.9859924	-0.02308962	-0.003894734	0.02079807							
2.6	0.0198822	0.06163025	-0.9889374	0.09670489	-0.0743131	0.2406371							
2.65	0.02494812	0.008483887	-0.9899292	-0.007965414	0.004291041	0.002445383							
2.7	0.01791382	0.005523682	-0.983017	0.005583799	-0.001676781	-0.002160942							
2.75	0.01597595	0.007476807	-0.9859467	0.003118127	-0.00643066	-0.001060894							
2.8	0.0168457	0.005554199	-0.9918976	-0.001792796	-0.004048242	9.03E-05							
2.85	0.01283264	0.00453186	-0.9898987	-0.002923553	0.00424753	-0.003311407							
2.9	0.0128479	0.004516602	-0.9880371	-0.001917566	0.003131516	0.004782203							
2.95	0.01579285	0.002609253	-0.9879456	0.003153037	-0.000494347	-0.002164189							
3	0.01567078	0.002685547	-0.9821014	-0.001692119	-0.001702572	-0.003358692							
3.05	0.01402283	0.003463745	-0.9967194	-0.01172476	-0.006543415	0.006879935							
3.1	0.01773071	0.003662109	-0.9849548	-0.007873045	-0.01255091	-9.47E-05							
3.15	0.01087952	0.004501343	-0.9880829	-0.008035557	-0.002978935	0.005775546							
3.2	0.01480103	0.003601074	-0.9869843	-0.00040481	-0.005452232	-0.005773617							
3.25	0.01486206	0.00553894	-0.9879761	-0.004124884	-0.005436896	-0.003480497							
3.3	0.01101685	0.005432129	-0.9929199	-0.006906468	-0.00413583	0.009241574							
3.35	0.01293945	0.006454468	-0.9899902	0.006687542	0.006533071	0.00247195							
3.4	0.01481628	0.003585815	-0.9879608	0.00330783	0.006433941	-0.007959775							
3.45	0.01383972	0.004547119	-0.98703	-0.006748646	-0.005377534	0.003446177							
3.5	0.01376343	0.002609253	-0.9860382	-0.000552336	-0.01134922	-4.43E-05							
3.55	0.01603699	0.008422852	-0.9928284	-0.004079465	-0.01972729	-0.004767843							
3.6	0.01277161	0.001586914	-0.9880219	-0.01172058	-0.005352331	0.006889209							
3.65	0.01582336	0.005584717	-0.9860077	0.003067055	-0.000621888	0.001229593							
3.7	0.01785278	0.005554199	-0.9888611	-0.01044983	0.003997316	0.004595258							
3.75	0.01679993	0.005584717	-0.9859772	0.003195788	-0.009144919	-0.003546666							
3.8	0.01664734	-0.000289917	-0.9859467	-0.001649876	-0.01273334	-0.00476337							
3.85	0.01387024	0.00553894	-0.98703	0.00190907	-0.000874237	-0.00120716							
3.9	0.01591492	0.007507324	-0.9879761	0.01381184	0.01589866	0.009422998							
3.95	0.01393127	0.004486084	-0.9918823	0.008009057	-0.003245065	-0.001195184							
4	0.01673889	0.004623413	-0.984024	0.000668956	-0.00687346	-0.000147129							
4.05	0.01303101	0.00440979	-0.9967651	-0.001681319	-0.002147943	-0.003588077							
4.1	0.01487732	0.003555298	-0.99086	0.000694722	-0.00093368	-0.001250481							
4.15	0.01290894	0.006454468	-0.9890137	0.000652781	0.001490255	0.00222797							
4.2	0.01097107	0.003479004	-0.9929047	-0.000499505	-0.005672509	-0.000157047							
4.25	0.0168457	0.003585815	-0.9898529	-0.007659855	-0.008116233	-0.006003637							
4.3	0.01281738	0.002548218	-0.9889832	-0.006644906	0.000317055	0.003321885							
4.35	0.01289368	0.005493164	-0.9889984	0.003077992	0.003913239	0.004565153							
4.4	0.0128479	0.004516602	-0.9880371	0.00444561	-0.009186205	0.000973905							
4.45	0.01586914	0.007537842	-0.9860229	-0.002949151	0.007483765	0.003398061							
4.5	0.009811401	0.002548218	-0.9871216	0.002190741	-0.008061999	-0.005969769							
4.55	0.01292419	0.004470825	-0.9919128	0.005764737	-0.00203819	-0.001276887							
4.6	0.016922	0.006484985	-0.9908447	0.000942805	0.003883695	-0.003563893							
4.65	0.01478577	0.002593994	-0.9879608	-0.000247757	0.005061512	-0.004716905							
4.7	0.01895142	0.007492065	-0.9917603	0.009534234	-0.01035765	-0.003653677							
4.75	0.01376343	0.001617432	-0.9870148	-0.000222303	-0.01156163	-0.003718802							
4.8	0.01382446	0.002563477	-0.9879761	-0.005114006	0.002710863	-0.003616436							
4.85	0.01390076	0.005508423	-0.9929199	0.005497956	0.000503263	0.01145527							
4.9	0.01593018	0.006500244	-0.9899902	0.002182685	-0.0031865	-0.001322746							
4.95	0.01387024	0.004516602	-0.9879608	0.001209019	-0.00089092	-0.01056271							
5	0.01576233	0.00163269	-0.98703	0.003431061	0.006356998	-0.001237446							
5.05	0.01287842	0.007492065	-0.9860382	-0.002504755	-0.002035102	-0.007130871							
5.1	0.01690674	0.006500244	-0.9928284	0.00121514	-0.000860088	-0.009413881							
5.15	0.0168457	0.006530762	-0.9880219	0.001098861	-0.006737163	-0.003691355							
5.2	0.01293945	0.006454468	-0.9860077	0.00946544	0.0111787	0.002301735							
5.25	0.01591492	0.007507324	-0.9888611	0.001160439	-0.006757837	-0.006005343							
5.3	0.01187134	0.004501343	-0.9859772	-0.001275175	-0.01506268	-0.004944668							
5.35	0.01782227	0.002593994	-0.9859467	-0.002654217	-0.01025248	0.000876084							
5.4	0.0138092	0.002578735	-0.98703	-0.005101062	-0.00192559	0.000938013							
5.45	0.01283264	0.003555298	-0.9879761	-0.000318827	-0.000665916	0.005596283							
5.5	0.01385498	0.001556396	-0.9879761	0.004553664	0.006481756	0.005687752							
5.55	0.016922	0.00352478	-0.9929199	-0.008789016	-0.00665019	0.003180836							
5.6	0.01580811	0.002593994	-0.9899902	0.002080622	0.008869234	0.006852653							
5.65	0.008865356	0.001525879	-0.9879608	-0.003758033	-0.00431317	-0.002554856							
5.7	0.0128479	0.006500244	-0.98703	-0.007504804	-0.01023802	0.000841393							
5.75	0.01472473	0.004608154	-0.9860382	-0.003755898	-0.0066936	-0.002576651							
5.8	0.01063538	0.003692627	-0.9928284	0.05290373	0.006704414	0.02215406							
5.85	0.01106262	0.004394531	-0.9880219	-0.01601576	-0.004309842	-0.000309447							
5.9	0.03381348	0.08488464	-0.9860077	0.01097419	-0.03127001	0.04008677							
5.95	-0.02236938	0.1881409	-0.9888611	-0.003446175	-0.02857601	0.07705235							
6	-0.04283142	0.217514	-0.9859772	-0.008421575	0.02187213	0.2614319							
6.05	-0.05467224	0.1053009	-0.9859467	-0.007585058	0.01366124	0.0045185							
6.1	-0.08494568	0.061203	-0.98703	-0.05015018	0.03812571	-0.04640049							
6.15	0.1233521	0.1456757	-0.9879761	0.00196452	-0.009315463	-0.1691748							
6.2	0.03572083	0.05378723	-0.9918823	0.0669379	0.001425231	-0.04492701							
6.25	0.08421326	0.08258057	-0.984024	-0.02082234	-0.00275497	-0.2294016							
6.3	-0.1147919	0.1100006	-0.9967651	0.003278716	-0.03620677	0.1464254							
6.35	-0.01608276	0.1279449	-0.9879761	-0.04876092	-0.01656584	0.2215144							
6.4	0.000686646	0.004241943	-0.9929199	-0.05505645	-0.1338769	0.2771037							
6.45	-0.09185791	-0.01708984	-0.9899902	-0.0735526	0.02439098	0.2807511							
6.5	0.01873779	-0.06227112	-0.9879608	0.02081503	-0.0216483	0.1744205							
6.55	0.087677	0.03883362	-0.98703	-0.00167592	0.03711398	-0.03457229							
6.6	0.01600647	-0.03897095	-0.9860382	0.05166007	-0.01261423	0.1156707							
6.65	0.008865356	0.08175659	-0.9928284	-0.03585397	0.06795689	-0.1709986							
6.7	0.02255249	-0.03430176	-0.9880219	0.01688799	-0.02357767	0.09339643							
6.75	-0.0160675	-0.01951599	-0.9860077	0.02464495	0.04057404	0.2120271							
6.8	0.008163452	-0.04074097	-0.9888611	0.01434004	-0.01910805	0.3248057							
6.85	0.03666687	-0.006164551	-0.9859772	0.05995703	-0.02322886	0.1248751							
6.9	0.02745056	-0.03620911	-0.9859467	0.002176531	-0.1029632	-0.1295333							
6.95	-0.04402161	-0.1632385	-0.98703	0.05051256	-0.04924631	-0.2502537							
7	-0.003295898	-0.3000793	-0.9879761	0.02032102	-0.02637867	-0.2166635							
7.05	0.03781128	-0.1786041	-0.9918823	-0.0343347	-0.00427416	-0.2700061							
7.1	0.03083801	-0.04141235	-0.984024	-0.04913157	-0.02167671	-0.2181851							
7.15	0.02923584	0.01560974	-0.9967651	0.05679031	-0.1138339	-0.1629023							
7.2	-0.001296997	0.007537842	-0.99086	0.004566703	-0.03739278	0.008724958							
7.25	0.006011963	0.003417969	-0.9890137	-0.002358131	0.008861142	-0.007090374							
7.3	0.005981445	0.002426147	-0.993042	0.00592907	0.01133804	0.002233227							
7.35	0.007888794	0.004470825	-0.9881592	-0.001288715	0.00296521	-0.001353668							
7.4	0.004974365	0.003433228	-0.9911346	0.003561169	0.000603986	-0.0001913							
7.45	0.007766724	0.001571655	-0.9861908	-0.002492737	-0.01250425	-0.001500854							
7.5	0.008087158	0.008331299	-0.9930267	-0.0108304	0.007641125	-0.009463026							
7.55	0.007965088	0.005447388	-0.990097	-0.00388409	0.008967528	0.004470286							
7.6	0.009887695	0.005493164	-0.9871368	-0.003884363	0.008969809	0.004470169							
7.65	0.007843018	0.0025177	-0.9881439	0.003401072	0.01137359	0.005689505							
7.7	0.008926392	0.007446289	-0.9862061	-0.002693556	0.007795374	0.005623042							
7.75	0.01293945	0.006454468	-0.9899902	-0.002351805	0.006490911	-0.007113087							
7.8	0.009048462	0.007369995	-0.9920349	0.003469638	0.004216054	0.003310367							
7.85	0.009918213	0.00843811	-0.9861908	0.002467417	0.004141231	-0.004794244							
7.9	0.008041382	0.006362915	-0.9930115	-0.000115382	-0.01009191	0.000846883							
7.95	0.006912231	0.003479004	-0.9891357	-0.002491244	-0.01130623	-0.001491426							
8	0.006912231	0.003479004	-0.9891357	-0.002491244	-0.01130623	-0.001491426							
8.05	0.01168823	0.002639771	-0.9822083	0.006004342	0.001807639	-0.00016859							
8.1	0.01168823	0.002639771	-0.9822083	0.006004342	0.001807639	-0.00016859							
8.150001	0.01278687	0.004562378	-0.9851074	-0.001208191	0.004216977	-0.002557499							
8.2	0.01278687	0.004562378	-0.9851074	-0.001208191	0.004216977	-0.002557499							
8.25	0.009994507	0.006393433	-0.9920044	-0.003822663	-0.008813947	0.004250862							
8.3	0.009887695	0.005493164	-0.9871368	-0.006110349	-0.00529936	-0.001514498							
8.35	0.009902954	0.003509521	-0.990036	0.000231605	-0.00061247	-0.01069184							
8.400001	0.00881958	0.001541138	-0.9881287	-0.00135533	-0.006439466	0.003129017							
8.45	0.005020142	0.006362915	-0.9902039	0.002303489	-0.006433769	0.003149368							
8.5	0.01095581	0.004455566	-0.9919586	-0.001265044	-0.00409049	-0.000320084							
8.55	0.009017944	0.006378174	-0.9920349	0.003452911	0.00191961	0.005544842							
8.6	0.008987427	0.003448486	-0.9929657	0.002179683	-0.008771584	0.007754575							
8.650001	0.003921509	0.005447388	-0.9863129	0.003853264	0.004164823	-0.009472732							
8.7	0.009933472	0.003479004	-0.9919739	0.00254366	0.00062446	-0.006041066							
8.75	0.00592041	0.00642395	-0.9862823	0.00239425	-0.006462431	-0.000321808							
8.8	0.007034302	0.007385254	-0.9901428	-0.000174035	-0.001664582	0.004334839							
8.85	0.006835938	0.004516602	-0.9842834	-0.004992077	-0.000503985	0.002004409							
8.900001	0.008834839	0.003540039	-0.9861755	0.001133611	0.003065501	0.000913952							
8.95	0.006820679	0.003555298	-0.9842682	0.000918821	0.000758293	0.008989852							
9	0.01101685	0.005432129	-0.9929199	0.001327169	-0.00532754	-0.006102961							
9.05	0.008071899	0.007354736	-0.9930115	0.002383864	0.003057076	-0.000236383							
9.1	0.005950928	0.005432129	-0.9882202	0.01211418	0.01029632	0.002145671							
9.150001	0.007843018	0.000549316	-0.9900665	-0.003572531	-0.006441552	-0.003877497							
9.2	0.008987427	0.005432129	-0.9910431	-0.006101079	-0.01117371	-0.000464265							
9.25	0.004867554	0.004470825	-0.985321	-0.006159869	-0.01472201	0.001816887							
9.3	0.009918213	0.003494263	-0.9909973	0.002344771	-0.01231877	0.003042863							
9.35	0.006912231	0.004455566	-0.9881897	-7.39E-05	-0.00043169	0.001980124							
9.400001	0.004928589	0.006408691	-0.9863129	0.00267416	0.000658019	-0.009563765							
9.45	0.009872437	0.004486084	-0.9881134	0.006078489	0.007886845	-0.000224156							
9.5	0.009872437	0.004486084	-0.9881134	0.007120562	-0.001569357	0.006637183							
9.55	0.01089478	0.0025177	-0.9909668	-1.56E-05	0.001927189	-0.000312282							
9.6	0.006866455	0.004486084	-0.9862366	-0.003733876	-0.0004378	0.001958989							
9.650001	0.008987427	0.005432129	-0.9910431	0.001153912	-0.01114006	0.001888789							
9.7	0.01089478	0.0025177	-0.9909668	0.004861321	0.004315757	-0.000264252							
9.75	0.008987427	0.006408691	-0.990097	-0.004669419	-0.007670907	-0.008524225							
9.8	0.008041382	0.006362915	-0.9930115	0.001211032	-0.007587675	-0.000392684							
9.85	0.01177979	0.003601074	-0.9851227	0.002576957	0.001883039	-0.006083694							
9.900001	0.007858276	0.005508423	-0.9852295	0.003543745	0.006728532	0.003220501							
9.95	0.009811401	0.003555298	-0.986145	0.000144514	-0.007640254	-0.006183842							
10	0.009765625	0.002578735	-0.9851685	-0.003699828	-0.008773233	0.000725578							
10.05	0.005981445	0.00440979	-0.9911194	-0.008454723	0.006550655	-0.006192698							
10.1	0.007614136	-0.004272461	-0.9851685	-0.01472656	-0.007676624	0.000584968							
10.15	0.01225281	0.01222229	-0.997818	0.02211701	-0.000155285	0.03672156							
10.2	0.003112793	0.006286621	-0.9941254	0.003628961	-0.01123727	-0.001659866							
10.25	0.007858276	-0.001434326	-0.9929504	0.01089022	-0.01596534	0.000651363							
10.3	0.003799438	0.003540039	-0.9824066	-0.002699954	-0.007679671	0.00520212							
10.35	0.006958008	0.003463745	-0.9910736	0.01202873	-0.007689139	0.001812587							
10.4	0.003890991	-0.00050354	-0.9921112	0.00345693	-0.004120877	0.002954415							
10.45	0.008865356	-0.001434326	-0.9929352	-0.002507661	-0.005405891	-0.002914539							
10.5	0.005905151	0.003479004	-0.9853516	-0.001357905	0.00294757	-0.000518645							
10.55	0.005004883	0.004379272	-0.9921265	0.001084323	-0.000619729	-0.000537703							
10.6	0.007965088	0.005447388	-0.990097	0.003397974	0.01009606	0.00300469							
10.65	-0.004043579	0.004379272	-0.9855499	0.001236939	0.009998612	-0.007420431							
10.7	-0.05813599	0.02037048	-0.9880981	-0.02714442	0.008090718	0.0502499							
10.75	-0.07342529	-0.002365112	-0.9941711	-0.001295157	-0.007462084	0.04096029							
10.8	-0.1166229	0.01872253	-0.9896393	-0.001923896	-0.008810286	0.155479							
10.85	-0.08355713	-0.009307861	-0.9914856	-0.006317398	0.004060382	0.000544888							
10.9	-0.07328796	0.02571106	-1.014771	-0.0382903	-0.01536021	-0.03570628							
10.95	-0.1045837	0.001525879	-0.9687805	-0.00971675	0.03492173	0.1257195							
11	-0.04013062	0.02311707	-0.94487	-0.03278495	0.03396915	-0.1058004							
11.05	-0.02853394	0.02577209	-0.9756775	-0.005069399	-0.02257782	-0.04719272							
11.1	-0.01896667	0.00920105	-0.9879761	0.04687745	-0.09884497	0.06462354							
11.15	-0.05889893	-0.01850891	-0.9929199	-0.005692869	-0.05326416	0.1133361							
11.2	0.03294373	0.036026	-0.9899902	0.02202159	0.07656737	-0.1491186							
11.25	-0.02464294	0.01626587	-0.9879608	0.02459343	0.01315626	0.07476175							
11.3	0.000457764	0.01367188	-0.98703	-0.002026476	-0.2217478	-0.2456845							
11.35	0.02990723	0.008895874	-0.9860382	0.05453492	0.04633	-0.08675464							
11.4	0.05155945	0.01519775	-0.9928284	-0.02759216	0.1335509	-0.1650889							
11.45	0.042099	-0.03755188	-0.9880219	-0.0445419	0.07011398	-0.2132354							
11.5	0.01261902	0.01461792	-0.9860077	-0.0194812	-0.03274635	-0.1446152							
11.55	0.09632874	-0.02482605	-0.9888611	-0.01269793	-0.1487706	-0.2127319							
11.6	0.1159821	0.009613037	-0.9859772	-0.000137448	-0.009903424	-0.000917771							
11.65	-0.08898926	0.0227356	-0.9859467	0.01518201	-0.03686423	0.5658103							
11.7	0.03439331	-0.02819824	-0.98703	-0.008446627	0.0114836	0.1264901							
11.75	0.1312561	0.01052856	-0.9879761	0.01888369	-0.01282868	-0.0726599							
11.8	0.1285248	0.03421021	-0.9918823	0.01939068	0.03298662	-0.1381855							
11.85	0.134613	0.009963989	-0.984024	0.003304713	0.01281523	-0.1292022							
11.9	0.005615234	0.02088928	-0.9967651	-0.0814578	0.01415449	-0.1066076							
11.95	0.01885986	0.02378845	-0.99086	0.03253766	-0.102405	0.01212978							
12	0.01222229	0.008255005	-0.9890137	0.013272	0.002172938	0.000245547							
12.05	0.006958008	0.008407593	-0.9862671	-0.000286443	-0.01326578	0.005814631							
12.1	0.00592041	0.00642395	-0.9862823	-0.005973899	-0.00857178	-0.009263077							
12.15	0.005889893	0.003494263	-0.9872284	2.17E-05	0.002179737	-0.005661547							
12.2	0.004974365	0.005401611	-0.989212	-0.002455959	0.01170847	-0.004431483							
12.25	0.004882812	0.004455566	-0.9862976	-0.003822539	0.001050267	0.001248053							
12.3	0.00982666	0.002532959	-0.9880981	-0.008513755	-0.000209049	-0.005731144							
12.35	0.003997803	0.006362915	-0.9892426	-0.006009213	-0.004985032	-0.008074319							
12.4	0.01205444	0.004394531	-0.9977722	0.006021129	0.006986327	-0.002114585							
12.45	0.006027222	0.006362915	-0.9911346	0.00223456	0.01178389	0.002535717							
12.5	0.004928589	0.004425049	-0.9882507	0.004740905	0.00581699	0.000181348							
12.55	0.007965088	0.005447388	-0.990097	0.004901226	-0.000185154	-0.005657175							
12.6	0.005020142	0.007354736	-0.9892273	0.002467651	-0.007328086	-0.00573534							
12.65	0.00604248	0.007369995	-0.9901733	-0.01217106	-0.004969955	-0.005795409							
12.7	0.008850098	0.004501343	-0.9861908	0.005990917	0.004620955	-0.000980035							
12.75	0.009857178	0.004501343	-0.9871368	-0.006132591	-0.008508442	-0.00348059							
12.8	0.005813599	0.000549316	-0.9872131	0.001139549	0.008174704	-0.002131837							
12.85	0.006835938	0.004516602	-0.9842834	-0.002601819	-0.003700147	0.001210321							
12.9	0.006912231	0.004455566	-0.9881897	-0.006131264	-0.009697121	-0.003491575							
12.95	0.002944946	0.002441406	-0.9902191	0.006028408	-0.002527467	-0.002202197							
13	0.006912231	0.004455566	-0.9881897	-0.002634892	-0.001309029	0.002388435							
13.05	0.009887695	0.004470825	-0.9890747	0.003632673	-0.003636979	-0.003428821							
13.1	0.007858276	0.001525879	-0.9900818	0.003512786	-0.008354872	0.00115488							
13.15	0.008056641	0.009353638	-0.9901276	0.001363363	0.001208492	-0.008012747							
13.2	0.00491333	0.003463745	-0.9882355	-0.001207825	0.008386865	-0.003334546							
13.25	0.005096436	0.004318237	-0.9960175	-0.002266456	0.001191927	-0.009190184							
13.3	0.005004883	0.005401611	-0.9901886	-0.003475358	0.001312402	-0.008031333							
13.35	0.005966187	0.004425049	-0.9901581	-0.002407328	-0.003393807	-0.002283586							
13.4	0.008010864	0.007400513	-0.9901123	-0.004696893	0.002500454	-0.008027591							
13.45	0.007003784	0.00541687	-0.9910889	-0.00130571	0.001538303	0.003586354							
13.5	0.0078125	0.000549316	-0.98909	0.006043521	0.001538559	0.00247009							
13.55	0.009887695	0.002502441	-0.9909973	0.003734682	-0.005646553	-0.00223558							
13.6	0.004959106	0.001434326	-0.9930725	0.00603049	-0.01022973	0.004716818							
13.65	0.006912231	0.004455566	-0.9881897	-0.001139818	-0.001963336	-0.001032555							
13.7	0.01081848	0.001556396	-0.9890289	0.003612021	0.000466269	0.00364328							
13.75	0.006027222	0.005386353	-0.9920959	-0.009865474	-0.000618121	0.007069344							
13.8	0.005081177	0.005340576	-0.9940643	-0.004889161	-0.006592457	0.003571662							
13.85	0.004959106	0.002426147	-0.9921112	0.000165448	0.004063127	-0.003245117							
13.9	0.006027222	0.005386353	-0.9920959	0.001261753	0.003022357	0.002582812							
13.95	0.003921509	0.003463745	-0.9882507	-0.008571045	-0.01719208	0.005815563							
14	0.007019043	0.005401611	-0.9920654	0.003572756	0.006637242	0.007256184							
14.05	0.004989624	0.003417969	-0.9921112	-0.004614559	-0.007671751	-0.004439969							
14.1	0.008010864	0.003417969	-0.9949341	-0.002153719	0.003031348	-0.005486466							
14.15	0.005996704	0.004394531	-0.9920959	-0.00817605	0.006577087	-0.008934827							
14.2	0.005996704	0.00541687	-0.9901581	0.000152347	-0.00285682	-0.000875707							
14.25	0.008834839	0.004516602	-0.9852142	0.002567274	-0.009982949	0.000229631							
14.3	0.004867554	0.003494263	-0.9862823	0.00609155	0.001965284	0.004985144							
14.35	0.00390625	0.001480103	-0.9901886	0.006110528	-0.002788669	0.003804184							
14.4	0.005859375	0.001495361	-0.9891663	-0.007212702	-0.002840793	0.000259108							
14.45	0.008804321	0.000564575	-0.9881134	0.003872841	-0.002850702	-0.004289319							
14.5	0.009979248	0.005432129	-0.9919891	0.007390791	0.01623721	0.00053059							
14.55	0.008850098	0.004501343	-0.9861908	-0.004601074	-0.006454772	-0.006683259							
14.6	0.003936768	0.002456665	-0.9901886	0.01837918	0.02220764	-0.00049608							
14.65	0.0164032	-0.007080078	-0.9820099	0.027916	0.02586565	0.007688229							
14.7	0.06340027	0.004119873	-0.989563	0.05072978	0.04743828	0.02073625							
14.75	0.03347778	-0.006057739	-0.9922333	0.007700348	-0.004836302	0.03392046							
14.8	0.1316986	-1.53E-05	-0.9896545	-0.008318253	-0.01875462	-0.1872655							
14.85	0.111908	0.02058411	-0.9670105	-0.01557761	-0.004098333	-0.1443667							
14.9	0.159317	0.004318237	-0.9792328	-0.02294913	0.0312397	-0.05267575							
14.95	0.08331299	0.01420593	-0.9879761	0.007794638	0.07325254	-0.01741668							
15	0.05595398	0.04516602	-0.9929199	-0.02387322	-0.000160236	0.02801756							
15.05	0.02348328	-0.04917908	-0.9899902	-0.03877086	0.04915298	0.2181319							
15.1	0.02348328	-0.04917908	-0.9879608	-0.05023398	-0.07209916	0.1024327							
15.15	0.02311707	-0.008834839	-0.98703	0.002789306	0.1185514	0.1218285							
15.2	0.004470825	-0.02206421	-0.9860382	0.01992734	0.09398472	0.1656635							
15.25	0.02384949	0.004592896	-0.9928284	0.02110953	0.07532562	0.07641791							
15.3	-0.02606201	-0.001678467	-0.9880219	0.02836414	-0.1308334	0.1741114							
15.35	0.07949829	-0.0131073	-0.9860077	-0.03218668	0.1075909	-0.02999161							
15.4	-0.01417542	0.005722046	-0.9888611	-0.00023844	-0.09106528	0.1025846							
15.45	0.05874634	-0.01834106	-0.9859772	-0.04974423	-0.1591953	-0.0521206							
15.5	-0.003753662	0.0320282	-0.9859467	-0.009350282	0.1592949	0.02619335							
15.55	0.02867126	0.009979248	-0.9879761	0.009024962	-0.0123873	0.1184474							
15.6	0.04084778	-0.004257202	-0.9929199	-0.02746006	0.06677786	0.06582008							
15.65	-0.01257324	-0.04338074	-0.9899902	0.01286914	-0.004982991	0.01911616							
15.7	-0.008712769	-0.01507568	-0.9879608	-0.02863438	0.1091731	0.01760802							
15.75	-0.0267334	-0.01481628	-0.98703	-0.02262631	-0.06972084	-0.02097741							
15.8	0.02882385	0.02351379	-0.9860382	-0.001406802	-0.1515743	-0.1280382							
15.85	-0.0813446	-0.003463745	-0.9928284	-0.01037861	-0.08597403	0.02290566							
15.9	-0.03186035	0.007720947	-0.9880219	-0.01786503	-0.05270348	0.02774739							
15.95	-0.03245544	0.007461548	-0.9860077	0.01361028	-0.03116741	0.03621576							
16	-0.02459717	-0.00793457	-0.9888611	0.02956254	0.02313235	-0.01410701							
16.05	0.0120697	0.005401611	-0.9859772	-0.005132853	0.003732388	-0.04004296							
16.1	-0.01998901	-0.00668335	-0.9859467	0.001960555	0.008949077	0.01321165							
16.15	-0.07711792	-0.03373718	-0.98703	-0.007400256	0.03061843	0.04343528							
16.2	-0.08462524	0.0368042	-0.9879761	0.01657355	0.004247074	0.1509219							
16.25	0.01811218	0.005386353	-0.9918823	-0.02516913	-0.005300072	0.02450046							
16.3	0.01846313	0.001831055	-0.984024	0.004736224	-0.02093403	0.001385937							
16.35	0.01309204	0.004364014	-0.9967651	0.01812305	0.01240782	0.001762896							
16.4	0.1654358	-0.1013947	-0.99086	0.002851721	-0.109682	-0.08694579							
16.45	0.0128479	0.004516602	-0.9890137	0.01808092	0.02431831	0.00302739							
16.5	0.01586914	0.003585815	-0.9898834	-0.000185305	-0.009027966	0.002623287							
16.55	0.01307678	0.006362915	-0.9967804	-0.009850354	-0.007881894	-0.00089092							
16.6	0.01583862	0.004562378	-0.9879608	0.001160942	-0.01144317	-0.002019129							
16.65	0.01399231	0.002471924	-0.9967194	-0.002349738	-0.004358345	-0.007758875							
16.7	0.01469421	0.001663208	-0.9850311	0.001281008	-0.005522481	-0.006592549							
16.75	0.01290894	0.001495361	-0.994812	0.004525601	0.007713707	0.008584698							
16.8	0.01190186	0.004501343	-0.9900055	-0.007311926	-0.01145445	-0.004380508							
16.85	0.01487732	0.003555298	-0.99086	-0.005100596	0.000527222	0.003838388							
16.9	0.01283264	0.003555298	-0.9880219	0.001032891	-0.004230383	0.002672082							
16.95	0.01393127	0.005508423	-0.9899445	-0.007726457	0.001782299	0.01077649							
17	0.0128479	0.003540039	-0.9889832	0.008525283	0.01000321	-0.004098711							
17.05	0.01393127	0.007476807	-0.9880219	0.008503526	-0.000694832	-0.003039182							
17.1	0.01408386	0.006378174	-0.9967499	0.003517293	0.005157307	-0.00087589							
17.15	0.0118103	0.002563477	-0.9880524	-3.20E-06	-0.011549	-0.00567475							
17.2	0.01277161	0.003601074	-0.9850922	-0.003585287	0.007455516	-0.00899317							
17.25	0.01289368	0.004501343	-0.989975	0.002467149	-0.01155425	-0.006818025							
17.3	0.01179504	0.003585815	-0.9860992	-0.001351206	-0.006746187	-0.001011395							
17.35	0.0158844	0.003570557	-0.9908447	-0.006258626	-0.009122548	9.66E-05							
17.4	0.01591492	0.002532959	-0.9937592	0.003330429	-0.000837699	0.004692617							
17.45	0.01193237	0.004470825	-0.9919434	0.002296935	-0.000901118	-0.002255142							
17.5	0.01187134	0.002532959	-0.9909515	0.007362969	-0.00214512	-0.009180293							
17.55	0.01094055	0.004470825	-0.9909821	-0.006009729	-0.008192739	-0.01172183							
17.6	0.01393127	0.004486084	-0.9918823	-0.005104912	-0.00332604	-0.000103385							
17.65	0.01295471	0.006439209	-0.9909515	-0.005228342	-0.004473538	0.004512846							
17.7	0.01390076	0.004516602	-0.9899445	0.000876299	-0.000953267	0.003329363							
17.75	0.01675415	0.002624512	-0.9869385	-0.002778241	-0.006908993	0.003254919							
17.8	0.01097107	0.005462646	-0.9909821	0.002015694	-0.0021571	0.005581433							
17.85	0.01005554	0.00340271	-0.9978027	0.005855923	0.002546211	-0.001296308							
17.9	0.009765625	0.000595093	-0.9871063	0.005732841	0.001397694	0.003320177							
17.95	0.01301575	0.003448486	-0.9967499	0.009497307	0.001326225	-0.001337773							
18	0.01191711	0.003509521	-0.9919281	0.002279486	-0.007046223	-0.004924359							
18.05	0.009872437	0.004486084	-0.9881134	0.008055843	0.006158131	0.006796362							
18.1	0.01094055	0.002487183	-0.9929047	-9.34E-05	0.002410797	-0.008371518							
18.15	0.01287842	0.003540039	-0.9899597	-0.000120092	-0.002338738	-0.007257889							
18.2	0.01289368	0.00352478	-0.990921	-0.00025612	0.0107939	-0.00251197							
18.25	0.01289368	0.004501343	-0.989975	-0.00395621	0.006017325	-0.00145963							
18.3	0.01275635	0.002593994	-0.9860687	-0.001573856	9.15E-05	0.00081325							
18.35	0.01190186	0.005493164	-0.9890289	-0.005017094	0.001203348	-0.007293814							
18.4	0.01292419	0.005493164	-0.989975	0.00203301	0.007232013	0.002015932							
18.45	0.01704407	0.005432129	-0.9976349	-0.002658004	0.004781744	-0.004973659							
18.5	0.01586914	0.003585815	-0.9898834	-0.005239693	-0.01063917	0.000656125							
18.55	0.01287842	0.003540039	-0.9899597	-0.004824619	-0.004845351	-0.01552073							
18.6	0.01580811	0.002593994	-0.9889069	-0.006327792	7.30E-06	-0.005073027							
18.65	0.01480103	0.003601074	-0.9869843	0.005812564	-0.007092991	-0.002756484							
18.7	0.01480103	0.001602173	-0.9898987	-0.001618647	0.002441899	0.000731113							
18.75	0.01197815	0.00642395	-0.9919586	0.007047642	-0.002346167	-0.003891998							
18.8	0.01585388	0.004547119	-0.9889221	-0.002679995	-0.001181919	-0.005091883							
18.85	0.01275635	0.000610352	-0.9880066	0.00678723	-0.002263612	0.005337003							
18.9	0.01004028	0.008361816	-0.9920197	-0.006540089	0.002444544	0.001834818							
18.95	0.01499939	0.003479004	-0.9966888	-0.00265705	-0.005952407	-0.006318045							
19	0.01098633	0.00642395	-0.9909973	0.0032677	0.002442184	-0.000444715							
19.05	0.01556396	0.00177002	-0.9782257	0.000973377	0.01309667	-0.006145605							
19.1	0.009841919	0.0025177	-0.9890594	-0.01396838	-0.003477503	0.005176054							
19.15	0.008026123	0.01034546	-0.9881897	-0.01966835	-0.03217357	-0.008998988							
19.2	0.01451111	0.02102661	-0.9997559	-0.0567143	-0.04754311	0.008009034							
19.25	0.004547119	0.05209351	-1.008987	-0.03577747	-0.03925353	0.000102103							
19.3	-0.008041382	-0.009536743	-1.000137	-0.01084129	-0.0183938	-0.06668273							
19.35	-0.01164246	-0.05950928	-1.074722	-0.07808819	0.05609968	-0.1080288							
19.4	-0.009414673	0.01890564	-1.136459	0.01130308	0.1505236	-0.07776133							
19.45	0.1282806	-0.02015686	-1.319092	-0.181681	0.03089383	-0.2476703							
19.5	0.01708984	0.0329895	-1.202911	0.07495901	0.1660542	0.04999349							
19.55	0.03411865	-0.07197571	-1.238632	-0.1502166	0.01922775	0.03467982							
19.6	0.03942871	-0.0274353	-1.204803	0.01637403	-0.0679256	0.2384302							
19.65	0.01437378	-0.05171204	-1.171295	0.279948	0.1640609	0.3206685							
19.7	-0.04718018	0.009231567	-1.096588	0.3104991	0.2184156	0.2715801							
19.75	0.02151489	0.0138092	-1.105438	0.1902011	0.3872768	-0.1139648							
19.8	0.1084137	0.03947449	-1.014862	0.2670281	0.3488264	-0.4308822							
19.85	0.1470032	0.06582642	-0.980957	0.2238034	0.589648	-0.5076077							
19.9	0.1818237	0.04718018	-0.8691101	0.3195358	0.6256956	-0.4847677							
19.95	0.1621857	-0.01683044	-0.8108673	0.3353589	0.4374388	-0.2515351							
20	0.08509827	-0.02684021	-0.6923523	0.5370805	0.3877122	0.005967931							
20.05	0.1567078	-0.1193237	-0.7160187	0.3022725	-0.02287926	0.03795955							
20.1	0.1003265	-0.09020996	-0.6885834	0.2964612	-0.2112854	0.1229864							
20.15	0.136795	-0.1277313	-0.8156281	-0.04870158	-0.2709816	-0.105069							
20.2	0.1166687	-0.1118774	-0.7832489	0.2957721	-0.5104441	0.2012517							
20.25	0.09724426	-0.1398468	-0.8817291	0.06498568	0.03366568	-0.1213412							
20.3	0.08013916	-0.1428528	-0.8724518	0.2925332	-0.2710975	0.08887111							
20.35	0.1221619	-0.1386566	-0.8869019	-0.02138473	-0.09425205	-0.172729							
20.4	0.1262665	-0.1383514	-0.93927	0.04865596	-0.02330165	-0.1022813							
20.45	0.1671906	-0.1519928	-0.9691772	0.02591268	-0.07541538	-0.07164373							
20.5	0.1382446	-0.140274	-0.9467163	0.003097048	-0.01090801	-0.04110556							
20.55	0.1384277	-0.1622314	-0.979599	-0.06820139	0.08274695	-0.06841788							
20.6	0.143692	-0.1275787	-0.954422	0.0208824	-0.01385798	0.02375331							
20.65	0.1309052	-0.1516571	-0.9866791	-0.01116223	0.006437052	0.03532736							
20.7	0.1191406	-0.1459198	-0.98703	-0.006442896	0.03701579	-0.004860261							
20.75	0.1279297	-0.1467133	-0.980957	-0.04146743	-0.04049465	-0.01616999							
20.8	0.1246796	-0.1475525	-0.9684143	0.03805063	-0.0174388	0.02034487							
20.85	0.1328125	-0.1466064	-0.976944	-0.008504977	-0.03807773	-0.01712201							
20.9	0.1325226	-0.1394653	-0.9556122	0.07595765	-0.01979252	0.01706343							
20.95	0.125473	-0.1524048	-0.9654388	0.009841761	0.009523263	-0.0200594							
21	0.1316071	-0.1484833	-0.9692078	0.02430121	-0.00110177	-0.0131339							
21.05	0.1275787	-0.1614075	-0.981842	-0.01869703	0.0556285	-0.04872224							
21.1	0.1253357	-0.1543121	-0.9615326	0.005051572	0.01543509	-0.0235034							
21.15	0.1097107	-0.1496582	-0.9658813	-0.01495601	0.0818215	-0.05192687							
21.2	0.135025	-0.15802	-0.9544525	-0.02660747	-0.03099141	-0.02409202							
21.25	0.1228638	-0.1457062	-0.9743042	-0.07180782	0.02012172	-0.0227217							
21.3	0.1429443	-0.139679	-0.9796295	-0.03834313	-0.05733754	-0.04059237							
21.35	0.1410675	-0.1387939	-0.9845581	-0.03329923	0.0354137	-0.04897904							
21.4	0.1378632	-0.143631	-0.9777985	-0.005541071	0.01414318	-0.03744984							
21.45	0.1495514	-0.1483307	-0.973587	0.02131928	-0.005635229	0.007638916							
21.5	0.1325073	-0.1364746	-0.9507751	0.03519921	0.08030401	0.03394717							
21.55	0.1407318	-0.1514893	-0.9825287	-0.04986304	0.02849903	-0.02252676							
21.6	0.1399078	-0.1357117	-0.9719696	0.02316514	0.002901581	0.02970688							
21.65	0.1336975	-0.1534729	-0.9797821	-0.01950388	0.01353518	0.02840943							
21.7	0.1309967	-0.1328278	-0.9693298	0.03970381	-0.000875383	0.004312644							
21.75	0.1524506	-0.1562042	-0.979248	-0.02718335	0.02274981	-0.003943273							
21.8	0.1334686	-0.1553192	-0.9710388	0.01633663	0.01979335	0.05643083							
21.85	0.1465454	-0.1463623	-0.9697723	0.02609182	0.047949	0.01046437							
21.9	0.1266937	-0.1425934	-0.9644928	0.01972458	0.01394099	0.06680924							
21.95	0.1335144	-0.1454163	-0.9623566	0.01876746	0.05388401	0.01047806							
22	0.1272736	-0.1472931	-0.9508514	0.006472115	0.0598428	0.01393499							
22.05	0.1401672	-0.1481628	-0.9524384	-0.02703673	8.31E-05	-0.00877319							
22.1	0.1554871	-0.1542511	-0.9811401	-0.06281555	-0.005004427	-0.03909752							
22.15	0.1684723	-0.1472015	-0.9779358	0.007914398	-0.00562264	0.007580928							
22.2	0.1634674	-0.1492157	-0.977066	0.02749615	0.0586336	0.003643729							
22.25	0.1604767	-0.149231	-0.9761963	-0.01467265	0.007650516	0.03071198							
22.3	0.1443024	-0.153183	-0.9659119	0.02406697	0.05420762	0.04060434							
22.35	0.1352692	-0.1522217	-0.9593506	0.02053488	0.01727606	0.03677949							
22.4	0.1415253	-0.1513367	-0.9727783	-0.01729794	0.03825769	-0.008342991							
22.45	0.1686096	-0.153244	-0.9905396	-0.05485502	0.02342215	-0.06306016							
22.5	0.1751709	-0.1469574	-0.966095	0.07588989	0.02080022	0.0197818							
22.55	0.1699982	-0.1448975	-0.953598	0.03501618	0.06810898	-0.004315926							
22.6	0.1510468	-0.1450195	-0.9473114	-0.000215978	0.08585587	-0.01013579							
22.65	0.1731415	-0.1399841	-0.9555054	-0.04063936	0.061644	-0.04875756							
22.7	0.1612854	-0.1640015	-0.9838409	-0.02525606	0.04677323	0.01482295							
22.75	0.1641235	-0.1509705	-0.9634399	0.03640191	0.02284398	-0.009345963							
22.8	0.1778259	-0.1506958	-0.9543152	0.02201415	-0.01176452	-0.01783792							
22.85	0.1845398	-0.1405487	-0.9328308	0.04896286	0.03345033	-0.02306349							
22.9	0.1804504	-0.1199799	-0.856308	0.07382645	0.03612703	0.004862898							
22.95	0.1819153	-0.103714	-0.8126526	-0.07887955	0.1307383	-0.03446121							
23	0.1876831	-0.09660339	-0.7969971	-0.2848082	0.1208369	-0.04263563							
23.05	0.1583405	-0.09616089	-0.8143005	-0.4557161	0.06155265	0.009096143							
23.1	0.1686096	-0.1287079	-0.9148712	-0.5595502	0.04634745	-0.07607322							
23.15	0.2022858	-0.04747009	-0.8669434	-0.2948364	-0.1682002	0.1097007							
23.2	0.1837616	-0.0922699	-0.9808197	-0.4440011	0.06084588	-0.06489941							
23.25	0.1641998	0.01365662	-0.8712769	-0.2021426	-0.09191618	0.1085945							
23.3	0.1583405	-0.02981567	-0.9722137	-0.3049714	0.06069842	0.02726614							
23.35	0.2327881	0.002120972	-0.986969	-0.3381448	-0.1359841	-0.004782098							
23.4	0.1819458	-0.06123352	-0.9995728	-0.3454564	-0.01620013	0.0830311							
23.45	0.1815643	0.03114319	-0.9691162	0.02912299	0.1362456	0.1674791							
23.5	0.1519318	-0.004730225	-0.9210663	0.01845086	-0.06566866	0.3425944							
23.55	0.190979	-0.03038025	-0.9693909	0.05177394	-0.1942351	0.3312006							
23.6	0.1189575	-0.051651	-0.9634094	0.06710807	-0.2011738	0.35089							
23.65	0.1837311	-0.009689331	-1.02417	0.06587821	-0.4208964	0.2655919							
23.7	0.1231232	-0.02319336	-1.033463	-0.02715887	-0.2547739	0.2284039							
23.75	0.1550446	-0.03155518	-1.098663	-0.215659	-0.1399412	-0.06892793							
23.8	0.08106995	-0.02140808	-1.011276	-0.04539664	-0.1418901	-0.04948964							
23.85	0.1415863	0.05047607	-1.024765	-0.03907999	-0.05836036	-0.2870201							
23.9	0.07818604	0.04974365	-1.02742	-0.1089913	-0.2137295	-0.08751653							
23.95	0.10495	-0.01191711	-1.051529	-0.2565907	-0.08510811	-0.182037							
24	-0.02362061	0.01527405	-1.031845	-0.04660746	-0.1814917	0.1780545							
24.05	0.1120605	0.01686096	-1.026276	-0.1817855	-0.2453278	-0.14721							
24.1	0.04341125	-0.006591797	-1.040573	-0.03286858	-0.1800265	0.07517955							
24.15	0.08831787	-0.02914429	-1.081009	-0.05791864	-0.155781	-0.1295157							
24.2	0.1109161	0.006027222	-1.031082	0.1120067	-0.1560182	-0.05221893							
24.25	0.05158997	0.007247925	-1.036575	0.1447432	-0.1241019	0.181949							
24.3	0.07907104	0.02462769	-1.003876	0.05386389	-0.08129672	-0.0692171							
24.35	0.07585144	0.04930115	-1.057602	0.06206988	0.02869943	-0.01379819							
24.4	0.04032898	0.0411377	-0.9817047	0.05608779	-0.4416861	-0.05280897							
24.45	-0.01408386	-0.0317688	-0.974884	-0.01792262	-0.1409057	0.06173076							
24.5	0.0723114	0.05723572	-0.9751282	0.08258963	-0.1694701	0.04467713							
24.55	0.005874634	-0.000488281	-0.9920654	-0.02630925	-0.2063936	0.0576188							
24.6	-0.007415771	0.02583313	-0.9887238	-0.0118711	-0.09726498	0.01704032							
24.65	0.01019287	0.009262085	-0.9978485	0.001812828	-0.01405626	0.005145719							
24.7	0.01118469	0.009292603	-0.9968414	0.02636469	-0.0176407	-0.000535418							
24.75	0.005828857	-0.002441406	-0.9920502	-0.01370997	0.007634623	0.03764941							
24.8	0.02078247	0.003631592	-0.9887695	0.003316692	0.01678206	-0.006135572							
24.85	0.02055359	-0.0131073	-0.9974213	0.0313397	0.01088565	-0.004876854							
24.9	0.008056641	0.009353638	-0.9901276	0.001956721	0.02276687	-0.00146203							
24.95	0.01199341	0.005447388	-0.9929047	-0.001745371	0.001361485	0.000636698							
25	0.01187134	0.004501343	-0.9890289	0.001949586	-0.00221167	-0.000531886							
25.05	0.01287842	0.003540039	-0.9899597	-0.006655675	0.003746229	0.001787876							
25.1	0.008850098	0.000549316	-0.9900513	-0.000542473	-0.01052249	0.001692331							
25.15	0.01275635	0.001602173	-0.9870453	0.00794027	-0.006965889	0.002934342							
25.2	0.008926392	0.003494263	-0.9900665	0.00443663	-0.00583094	-0.002859444							
25.25	0.0118866	0.003540039	-0.9899902	-0.01035161	-0.008181232	0.002821617							
25.3	0.008834839	0.001525879	-0.98909	0.003089842	0.000160711	0.001814886							
25.35	0.007049561	0.004364014	-0.9949799	0.005497365	0.002556584	0.003006859							
25.4	0.01106262	0.004394531	-0.9968109	-0.004196219	0.001330481	0.000628077							
25.45	0.009841919	0.000549316	-0.9909821	-0.0004197	0.008435493	-0.003914083							
25.5	0.0118103	0.004547119	-0.9861145	-0.007758088	-0.002276038	-0.002895206							
25.55	0.009063721	0.005371094	-0.9949341	0.002053964	0.006048942	-0.005078827							
25.6	0.009933472	0.003479004	-0.9919739	-0.000506271	0.002517271	-0.000497787							
25.65	0.008773804	-0.00138855	-0.9890594	0.009225286	-0.003407017	0.000658986							
25.7	0.007019043	0.008361816	-0.9891815	-0.004004466	-0.00229968	-0.006346007							
25.75	0.01092529	0.00050354	-0.9948425	0.004373919	0.002526437	-0.000471201							
25.8	0.01101685	0.005432129	-0.9929199	-0.01238226	-0.007123516	-0.01222064							
25.85	0.005950928	0.002441406	-0.9920807	0.000544226	-0.01407608	0.006298315							
25.9	0.009887695	0.002502441	-0.9909973	-0.004097568	-0.001076633	-0.002864891							
25.95	0.008041382	0.006362915	-0.9930115	-0.002815776	-0.001095204	-0.005171554							
26	0.01194763	0.006454468	-0.9900208	-0.001620076	-0.009413018	-0.004084044							
26.05	0.007843018	0.0025177	-0.9881439	0.01284659	0.006132694	0.001921752							
26.1	0.009002686	0.003433228	-0.9939423	0.005573066	-0.009358922	0.000583642							
26.15	0.00881958	0.001541138	-0.9881287	-0.004212413	-0.004650039	0.000586325							
26.2	0.010849	0.002532959	-0.9890289	0.000540947	-0.002220222	0.005262463							
26.25	0.00592041	0.00642395	-0.9862823	-0.005307355	-0.004692814	-0.004047784							
26.3	0.009048462	0.005386353	-0.9939575	0.007760612	0.003773798	0.00882738							
26.35	0.01091003	0.002502441	-0.9919434	-0.005311151	-0.001120927	-0.004015605							
26.4	0.006912231	0.002487183	-0.9901123	-0.00409096	-0.001119252	-0.004009032							
26.45	0.01582336	0.000610352	-0.991806	-0.000706383	-0.006970049	0.006368903							
26.5	0.01287842	0.0025177	-0.9918976	0.001778875	0.01205533	0.004241436							
26.55	0.01095581	0.005477905	-0.9900208	0.005544527	0.007230664	-0.000392945							
26.6	0.01092529	0.004486084	-0.9900208	0.000830232	-0.003539163	-0.006301524							
26.65	0.01301575	0.00440979	-0.9958038	0.004517287	2.65E-05	-0.007405804							
26.7	0.006011963	0.003417969	-0.993042	-0.01028442	-0.001139678	-0.001704998							
26.75	0.008987427	0.007400513	-0.9891205	-0.01625531	-0.004760454	-0.00639923							
26.8	0.01092529	0.006454468	-0.9880981	-0.008999603	-0.004728145	-0.004044822							
26.85	0.007965088	0.005447388	-0.990097	-0.01135433	-0.005951896	-0.007528738							
26.9	0.008804321	0.002548218	-0.9861755	0.007815996	-0.002237003	0.005337154							
26.95	0.01074219	-0.000366211	-0.9870758	0.000658809	-0.008249766	-0.000541874							
27	0.01089478	0.004486084	-0.9890442	-0.004202126	-0.002312357	-0.001659682							
27.05	0.009902954	0.002487183	-0.9919739	0.00326715	0.00240742	-0.007360033							
27.1	0.01002502	0.006378174	-0.9929657	-0.00164199	0.001220769	-0.006241358							
27.15	0.01098633	0.005447388	-0.9919586	-0.01028194	0.0048153	-0.002773615							
27.2	0.01289368	0.00151062	-0.9938354	-0.005337098	4.29E-05	-0.005103241							
27.25	0.006912231	0.002487183	-0.9901123	0.004360508	-0.002300736	-0.002757403							
27.3	0.009887695	0.004470825	-0.9890747	0.001854014	-0.002272557	-0.000441895							
27.35	0.009902954	0.003509521	-0.990036	-0.005275199	-0.005915998	-0.007455944							
27.4	0.00793457	0.003479004	-0.9910431	0.004468678	0.009569883	-0.007261933							
27.45	0.008926392	0.005462646	-0.9881439	-0.004192172	0.004850007	-0.002707977							
27.5	0.00894165	0.001464844	-0.9939423	0.003028571	0.008462524	0.000835537							
27.55	0.009902954	0.005477905	-0.9881134	0.004336801	0.01082695	-0.002589019							
27.6	0.01089478	0.004486084	-0.9890442	0.00202816	0.00364129	-0.007294392							
27.65	0.01280212	0.002563477	-0.9880219	0.001659411	0.000196398	0.00655501							
27.7	0.008895874	0.002502441	-0.9900665	-0.000503679	0.002497429	-0.003826483							
27.75	0.01002502	0.007385254	-0.9920044	0.006688215	0.004931103	0.000862673							
27.8	0.01097107	0.005462646	-0.9909821	-0.005448442	0.006082235	-0.001507664							
27.85	0.01087952	0.00352478	-0.9890289	-0.000446811	0.009639793	-0.0060512							
27.9	0.01078796	0.001586914	-0.9870911	-0.000621619	-0.003387478	0.000771177							
27.95	0.01290894	0.004486084	-0.9909363	0.003172322	-0.01532385	-0.003944111							
28	0.009887695	0.002502441	-0.9909973	0.000680129	0.01445718	-0.002506829							
28.05	0.01394653	0.003509521	-0.9928284	0.002132363	-0.00346381	-0.01075977							
28.1	0.006881714	0.003509521	-0.9871979	0.000542477	-0.005720142	0.003093614							
28.15	0.009002686	0.00541687	-0.9920197	-0.001464516	0.003680088	-0.01300213							
28.2	0.0128479	0.002548218	-0.9899597	-0.00411227	-0.005771042	-0.005003978							
28.25	0.008880615	0.005493164	-0.9861908	0.005450256	0.003827029	0.002077281							
28.3	0.01083374	0.002548218	-0.9880676	-0.007979386	-0.006862756	0.003090312							
28.35	0.01091003	0.00151062	-0.9929047	-0.004314963	0.02288374	0.002223381							
28.4	0.01182556	0.001571655	-0.9899902	0.003156994	-0.01046683	-0.002665507							
28.45	0.004943848	0.00440979	-0.989212	-0.002773663	-0.01526005	-0.008501024							
28.5	0.008850098	0.0025177	-0.9881287	0.006935332	0.004995888	-0.007106719							
28.55	0.009963989	0.003463745	-0.9929352	-0.007698619	0.002593602	-0.007209626							
28.6	0.01098633	0.003463745	-0.9938812	-0.004146314	-0.005656479	-0.002608652							
28.65	0.008895874	0.004470825	-0.9881439	-0.004148878	-0.003275981	-0.002587224							
28.7	0.01470947	0.001647949	-0.9860077	-0.003087251	0.01109208	0.003361982							
28.75	0.0078125	-0.000427246	-0.9900665	-0.001709442	0.008662739	-0.002437127							
28.8	0.01191711	0.006454468	-0.9890442	-0.000732354	0.0027983	0.006770394							
28.85	0.01370239	0.000671387	-0.9850464	-0.009124916	-0.0103153	0.002001974							
28.9	0.01190186	0.006469727	-0.9880829	-0.004195587	0.002762426	-0.000165685							
28.95	0.009872437	0.0025177	-0.990036	-0.01275414	-0.01033021	0.000824612							
29	0.01104736	0.006378174	-0.9939117	-0.00893089	-0.006770638	-0.004878751							
29.05	0.01399231	0.005462646	-0.9928436	0.004607698	-0.005601262	-0.009420864							
29.1	0.01081848	0.003570557	-0.9861145	0.004167977	0.000495477	0.006828531							
29.15	0.00793457	0.005447388	-0.9891205	-0.000570416	-0.004276193	0.002159171							
29.2	0.008880615	0.003509521	-0.9881287	0.004492378	-0.001951315	-0.00473323							
29.25	0.008850098	0.000549316	-0.9900513	-0.007635431	-0.0103207	-0.007190399							
29.3	0.01092529	0.003509521	-0.9909668	-0.000505371	0.005260205	-4.26E-05							
29.35	0.008956909	0.002456665	-0.9929657	0.00553621	-0.000658946	0.002250802							
29.4	0.008926392	0.002471924	-0.9920044	0.001851107	-0.006604795	0.003333244							
29.45	0.004806519	0.001525879	-0.9862823	0.000949281	0.000468316	-0.008149059							
29.5	0.01081848	0.001556396	-0.9890289	-0.01149819	0.002912607	0.001058967							
29.55	0.009872437	0.003509521	-0.9890594	-0.003804743	-0.000770857	-0.01281464							
29.6	0.01098633	0.003463745	-0.9938812	-0.00410798	0.005322521	-0.00116413							
29.65	0.00692749	0.004440308	-0.989151	0.003023287	0.005397147	0.005817495							
29.7	0.008850098	0.0025177	-0.9881287	-0.002817631	0.00652999	-0.00343412							
29.75	0.01094055	0.006439209	-0.9890594	0.001972308	0.001808762	2.04E-05							
29.8	0.008895874	0.003494263	-0.98909	0.002208323	0.01481576	-0.009115678							
29.85	0.007843018	0.0025177	-0.9881439	0.0007624	0.001847633	4.35E-05							
29.9	0.01295471	0.004455566	-0.9928741	-0.007642025	-0.008918239	-0.00472851							
29.95	0.005844116	0.00151062	-0.988205	0.000887243	0.000615757	-0.004594935							
30	0.009918213	0.004470825	-0.9900513	0.000742506	-0.002859025	0.001187949							
30.05	0.009872437	0.0025177	-0.990036	0.004403451	-0.005233229	0.001186504							
30.1	0.01202393	0.006393433	-0.9938965	0.003399489	-0.004117789	-0.006907229							
30.15	0.01281738	0.000579834	-0.9909058	0.0119153	-0.008815296	-0.005717835							
30.2	0.006942749	0.001464844	-0.9930115	0.004437033	-0.002823557	7.97E-05							
30.25	0.009872437	0.00151062	-0.9919739	-0.001855697	0.006749517	0.007073062							
30.3	0.008789062	0.002563477	-0.985199	0.0010277	0.001889856	-0.009121786							
30.35	0.01086426	0.001541138	-0.9909668	0.006974853	-0.002809173	-0.003347123							
30.4	0.007949829	0.002456665	-0.992981	-0.002626621	-0.004067197	-0.009196363							
30.45	0.009796143	-0.000411987	-0.9900208	-0.01005117	-0.01589497	-0.004687821							
30.5	0.00302124	0.005386353	-0.9902344	-0.003938611	0.003144187	-0.005638711							
30.55	0.01100159	0.004425049	-0.9938965	-0.004058943	-0.001574369	-0.001054465							
30.6	0.007858276	0.001525879	-0.9900818	0.01423211	0.01039234	-0.000817864							
30.65	0.01293945	0.005477905	-0.9909363	0.004573079	0.004396723	-0.00439646							
30.7	0.00793457	0.003479004	-0.9910431	-0.004248148	0.009238038	0.006010526							
30.75	0.006912231	0.004455566	-0.9881897	-0.005238555	0.004445661	-0.002105777							
30.8	0.01185608	0.002548218	-0.9899902	0.002060481	-0.009813275	-0.001037992							
30.85	0.009063721	0.000396729	-1.000732	-0.004113819	0.005668366	0.001381668							
30.9	0.004867554	0.001480103	-0.9891968	-0.000158361	-0.006276696	-0.009084375							
30.95	0.0078125	0.001541138	-0.9881439	0.000832452	-0.02761271	-1.75E-05							
31	0.009872437	0.00151062	-0.9919739	0.005735615	-0.01567628	-0.001008965							
31.05	0.009780884	0.002563477	-0.986145	0.008113826	-0.01684129	0.001307102							
31.1	-0.00227356	-0.00440979	-0.9864197	0.01528627	-0.02867737	0.007024227							
31.15	-0.001190186	-0.004440308	-0.9902802	-0.002820447	-0.02634889	3.74E-05							
31.2	0.002807617	-0.000457764	-0.9872894	-0.001938977	0.005888219	0.01190353							
31.25	0.001068115	0.000366211	-0.9970551	-0.0076405	-0.01049882	0.04295957							
31.3	0.00390625	0.000488281	-0.9911346	0.008183714	-0.02035384	-0.000970596							
31.35	0.000915527	-0.0025177	-0.9931488	0.009255644	-0.02863031	0.004744427							
31.4	0.01480103	-0.004348755	-0.9966431	0.01593707	-0.04506081	0.02892741							
31.45	0.06164551	-0.03018188	-0.9922943	0.02513088	-0.1300159	0.2341685							
31.5	-0.05154419	0.006774902	-0.9868469	0.03173312	-0.1114479	0.4426179							
31.55	0.0401001	-0.03060913	-1.005508	0.02688348	-0.1091311	0.304939							
31.6	-0.02622986	0.004364014	-0.9676819	0.04292575	-0.09915021	0.6163287							
31.65	-0.03460693	-6.10E-05	-0.9989777	0.03264347	-0.03232125	0.7707477							
31.7	-0.03875732	0	-0.9903412	0.02396308	0.000246134	0.820742							
31.75	-0.05584717	0.002990723	-0.9742889	0.0297564	-0.0290185	0.7418383							
31.8	0.06956482	-0.05230713	-0.9715424	0.06265213	-0.0365063	0.6979903							
31.85	-0.0664978	0.0358429	-0.9952087	0.0424276	-0.0175372	1.08793							
31.9	0.04191589	-0.03642273	-1.004456	0.06540447	-0.00558361	0.9585915							
31.95	0.06904602	-0.04203796	-0.9346924	0.07203129	0.01534116	1.165906							
32	-0.004699707	-0.02737427	-0.9455109	0.07205888	0.006637407	1.256066							
32.05	-0.03494263	0.03234863	-0.9914551	0.01843267	0.04497777	1.162406							
32.1	-0.05526733	0.000610352	-1.005371	0.06108895	-0.0363468	0.8472239							
32.15	0.0827179	-0.04438782	-0.9741364	0.03694465	-0.07330336	0.9751722							
32.2	0.06454468	-0.01025391	-0.9670868	0.09630713	0.119477	1.486342							
32.25	-0.1238556	0.05332947	-1.028961	0.01672813	0.07200368	1.907744							
32.3	-0.08479309	0.006088257	-1.009109	0.08272544	0.05998177	1.357309							
32.35	0.07122803	-0.0209198	-0.9668427	0.05847808	0.02374799	1.170583							
32.4	-0.118454	0.0305481	-0.9819946	0.01581149	0.02097336	1.397075							
32.45	-0.02520752	0.02458191	-0.9930573	0.009520608	0.04152967	1.03974							
32.5	-0.06018066	0.0316925	-1.018356	-0.00347836	0.01359404	0.9792553							
32.55	0.00062561	-0.01524353	-0.9940491	0.003267878	-0.006472757	0.8645754							
32.6	0.02758789	-0.01013184	-1.000168	-0.02838	0.03907654	0.9064621							
32.65	-0.004348755	-0.04547119	-0.9822998	-0.008561986	0.02161587	1.077637							
32.7	-0.09028625	0.02362061	-1.010345	0.003074407	0.000729648	0.8715807							
32.75	-0.01800537	-0.005661011	-0.9936371	0.02323419	0.0310179	0.6648799							
32.8	0.02400208	-0.03460693	-0.999115	0.000343768	0.01610888	0.3360539							
32.85	0.05445862	-0.03507996	-0.9866333	0.001733323	0.0216806	0.5570826							
32.9	-0.03527832	-0.009552002	-0.9785156	-0.005013874	0.06407478	1.035236							
32.95	-0.0460968	0.01644897	-0.9984283	0.01548046	0.1370791	0.8150406							
33	-0.02168274	0.007019043	-0.9928436	-0.009423846	0.04908601	0.5630535							
33.05	0.01924133	-0.02781677	-0.9992828	-0.0125811	0.007227367	0.4087861							
33.1	-0.1006012	0.06190491	-0.9934082	-0.003378041	-0.009593543	0.5209053							
33.15	0.01087952	-0.002441406	-0.9958038	-0.01286324	0.01080027	0.1461971							
33.2	-0.001358032	-0.0112915	-0.9902344	-0.003864116	0.01189667	0.12895							
33.25	0.02194214	-0.02763367	-0.9875488	0.008434255	0.001218836	0.261966							
33.3	-0.0166626	0.01498413	-0.9869385	0.000992057	-0.03439653	0.403902							
33.35	-0.05903625	0.06240845	-0.9903564	-0.008645765	0.005952342	0.2619138							
33.4	-0.00428772	-0.005386353	-0.9854889	-0.008713222	0.01302289	-0.008739968							
33.45	-0.007141113	-0.002548218	-0.9885101	-0.000321091	0.001187685	-0.003016423							
33.5	-0.003143311	-0.003494263	-0.9903564	0.01063409	-0.009495426	-0.001895874							
33.55	-6.10E-05	-0.004516602	-0.9970398	0.01849828	-0.03108125	-0.02171555							
33.6	-0.01313782	-0.005554199	-0.989624	-0.0055932	0.0484908	-0.03501053							
33.65	0.03256226	0.01844788	-1.060501	-0.03005962	0.1218724	0.0569158							
33.7	-0.005996704	-0.004592896	-0.9972076	0.004312071	-0.003477809	0.006221324							
33.75	-0.006164551	-0.001495361	-0.9855652	-0.000489589	0.01314565	0.002874889							
33.8	-0.002044678	-0.002578735	-0.9951782	0.004391744	0.009582235	0.002869162							
33.85	-0.004089355	-0.004516602	-0.9932556	-0.001792228	8.43E-05	0.006219563							
33.9	-0.002151489	-0.004486084	-0.9922485	0.00686209	0.008385438	0.001714669							
33.95	-0.001052856	-0.001541138	-0.9931946	-0.002976491	-0.005877956	0.005001653							
34	-0.000137329	-0.004470825	-0.9931488	-0.004106101	-0.003531084	0.001545584							
34.05	-0.001220703	-0.004440308	-0.9893036	-0.00425106	-0.0153791	0.007221965							
34.1	-0.00227356	-0.005401611	-0.9873962	0.006960216	2.64E-05	-0.001831618							
34.15	0.000823975	-0.002471924	-0.9892731	0.002019333	4.02E-05	0.000455152							
34.2	0.00062561	-0.008300781	-0.9863281	-0.0112957	-0.01186266	-0.00314705							
34.25	-0.004211426	-0.002456665	-0.9855042	-0.002891233	-0.002287342	0.001614266							
34.3	-0.00112915	-0.000534058	-0.9893341	-0.002709695	0.002410744	-0.005283752							
34.35	-0.003311157	-0.006393433	-0.9864349	0.002203682	-0.002352015	-0.006456454							
34.4	-0.003234863	-0.007415771	-0.9912872	-0.005140265	-0.008303959	-0.005394791							
34.45	-0.000106812	-0.000518799	-0.9902802	0.003325972	0.002440953	-0.002936584							
34.5	-0.005096436	-0.00453186	-0.9932861	-0.000569446	-0.01176139	0.006168081							
34.55	-0.001312256	-0.004364014	-0.984436	-0.002642592	-0.004750658	-0.007662594							
34.6	-0.001251221	-0.007385254	-0.9912262	-0.001609112	-0.004685797	-0.000715086							
34.65	0.000778198	-0.005401611	-0.9902344	-0.002738432	-0.002338725	-0.004170724							
34.7	0.000915527	-0.0025177	-0.9931488	-0.000245235	0.007164076	-0.00638469							
34.75	0.000839233	-0.004455566	-0.9921722	-0.003760886	-0.01430424	-0.011227							
34.8	0.000823975	-0.002471924	-0.9892731	-0.007742404	-0.001115611	0.000439577							
34.85	-0.001144409	-0.002487183	-0.9902954	-0.000276974	0.007174036	-0.005228453							
34.9	-0.001358032	-0.006332397	-0.9844208	-0.006546767	-0.009433582	0.00152703							
34.95	-0.003173828	-0.004470825	-0.9903412	-0.003020225	0.000133761	0.006261454							
35	-0.000183106	-0.004440308	-0.9912109	-0.000450753	-0.007044291	0.0015824							
35.05	-0.002029419	0.000396729	-0.9922791	0.008114179	-0.002281373	0.00051648							
35.1	-0.003173828	-0.004470825	-0.9903412	-0.006424691	-0.007095115	-0.003079202							
35.15	0.001708984	-0.007339478	-0.9901886	0.003384926	0.003609531	-0.005241571							
35.2	-0.000106812	-0.001495361	-0.9912262	0.003143454	-0.005777472	0.003983736							
35.25	0.00076294	-0.006393433	-0.9902191	-0.003830967	-0.008283569	-0.008803821							
35.3	-0.003067017	-0.002563477	-0.9932556	-0.001449783	-0.01301853	-0.006519753							
35.35	0.000701904	-0.004364014	-0.9853668	-0.006332459	-0.009456384	-0.006514876							
35.4	-0.000137329	-0.003479004	-0.9922028	0.002004492	0.007279823	0.000624976							
35.45	0.002838135	-0.004440308	-0.9930725	0.000945643	8.57E-05	-0.005231198							
35.5	-0.00302124	-0.001586914	-0.9942322	-0.002870002	0.002513049	0.000554369							
35.55	0.003860474	-0.004455566	-0.9949951	0.007228042	0.002458083	-0.01206813							
35.6	-0.005996704	-0.004592896	-0.9972076	-0.007583971	-0.009401832	-0.005316637							
35.65	-0.004241943	-0.004425049	-0.9864655	-0.000216368	0.004868852	-0.007459825							
35.7	-0.00213623	-0.000534058	-0.9884033	-0.000432006	0.004965489	0.000643856							
35.75	-0.003112793	-0.005523682	-0.9951935	-0.008805296	-0.005810773	-0.005285526							
35.8	-0.000976563	-0.001586914	-0.9970856	-0.005281022	0.006136741	-0.000529774							
35.85	-0.003219604	-0.004455566	-0.9884033	-0.001363304	-0.002246609	-0.009842126							
35.9	-0.001174927	-0.006454468	-0.9931641	-8.85E-05	0.004874617	-0.0120844							
35.95	-0.001159668	-0.005462646	-0.9931793	-0.009998352	0.00253143	-0.006376039							
36	-0.002166748	-0.004470825	-0.991272	0.000920918	0.003783158	-0.004000341							
36.05	-0.000167847	0.00050354	-0.9863892	-0.00279815	0.001417824	-0.001728809							
36.1	-0.003173828	-0.007461548	-0.9942017	0.00076099	0.008594799	0.001826413							
36.15	0.000808716	-0.004425049	-0.9902344	-0.005038728	-0.008148612	-0.008776573							
36.2	-0.003112793	-0.00352478	-0.9922943	-0.001300222	0.007296566	-0.01208674							
36.25	-0.003204346	-0.005447388	-0.9903412	-0.01011221	0.001426395	-0.001776723							
36.3	-0.001113892	-0.004501343	-0.9941559	0.01056533	0.002690618	0.000658649							
36.35	-0.000213623	-0.00642395	-0.9921722	0.004499245	0.001480522	-0.000543358							
36.4	0.000946045	-0.004516602	-0.9970245	-0.000474727	0.00388414	0.002921533							
36.45	0.001922607	-0.002532959	-0.9950714	0.002115128	0.008595957	-0.002805984							
36.5	0.000823975	-0.004440308	-0.9911957	-0.003256745	0.005184968	0.01564372							
36.55	0.001861572	-0.004470825	-0.9940796	-0.001589659	-0.01042898	-0.000685606							
36.6	0.002838135	-0.002456665	-0.9911499	0.004661523	-0.008091696	-0.00641448							
36.65	0.000656128	-0.005325317	-0.9843903	0.00449985	-0.000898891	-0.000565735							
36.7	-0.001235962	-0.004425049	-0.9883423	-0.005280638	-0.010424	0.000450646							
36.75	-0.003082275	0.000411987	-0.9893951	0.000936226	-0.004506542	-0.004088891							
36.8	-0.002258301	-0.00541687	-0.9883728	-0.008977847	-0.003280442	0.001651229							
36.85	-0.003173828	-0.004470825	-0.9903412	-0.00873035	-0.002173857	-0.007592508							
36.9	-0.001159668	-0.004470825	-0.992218	-0.005218911	-0.01044725	-0.001863672							
36.95	0.000915527	0.001434326	-0.9893036	0.0130608	0.007431721	-0.001600108							
37	-0.001083374	-0.002532959	-0.9931946	-0.000348147	-0.002109122	-0.00176112							
37.05	0.001968384	-0.000579834	-0.9950867	0.008100854	-0.006825212	0.001713067							
37.1	0.001754761	-0.00440979	-0.9892273	0.000869953	-0.000917325	-0.00174413							
37.15	-0.001113892	-0.0025177	-0.9922333	-0.004003962	-0.00687509	-0.001825454							
37.2	-0.007247925	-0.004455566	-0.9855652	-0.007723809	-0.01381757	0.003896999							
37.25	-0.005020142	-0.001586914	-0.9933014	-0.007510161	-0.01032101	-0.004168286							
37.3	0.004806519	-0.003417969	-0.9911041	-0.009596	-0.02472074	-0.0170368							
37.35	-0.00112915	-0.004486084	-0.9931793	0.002339724	0.02535357	-0.008417897							
37.4	-0.0140686	-0.003616333	-0.9896698	0.004708348	0.000396225	-0.005160991							
37.45	-0.0308075	-0.002883911	-0.993988	0.008351211	-0.006371207	-0.09544142							
37.5	-0.02268982	0.009002686	-0.9890137	0.004961849	-0.03150655	-0.2414597							
37.55	0.001846313	0.03663635	-0.9924316	0.0230599	-0.002182648	-0.5534596							
37.6	-0.002166748	-0.001480103	-0.9874115	0.02934621	-0.009471784	-0.8334642							
37.65	-0.05732727	0.02780151	-1.01825	-0.01374437	-0.003041958	-0.7734855							
37.7	-0.1292725	0.06549072	-0.9932251	0.02783226	-0.09219867	-0.6387047							
37.75	-0.04780579	0.02719116	-0.999527	0.005263994	0.008871594	-1.300825							
37.8	-0.05557251	0.03094482	-1.003632	0.02227645	0.04570856	-1.572272							
37.85	0.02604675	0.01441956	-0.9916229	0.01305896	-0.05130946	-1.772193							
37.9	-0.05833435	0.004592896	-0.9967346	-0.002553548	-0.03434869	-1.736261							
37.95	0.0554657	0.01594543	-0.9762573	0.003570815	-0.02844489	-1.873847							
38	-0.005493164	0.01097107	-1.003159	-0.01679703	0.04758478	-1.752951							
38.05	-0.0413208	0.00668335	-1.001144	-0.02482497	0.09100731	-1.818545							
38.1	0.07522583	0.007247925	-0.9824829	-0.007766888	0.01521881	-2.04358							
38.15	0.01455688	0.01304626	-1.011368	-0.005288204	0.0636662	-1.818685							
38.2	0.07131958	0.002212524	-0.9913025	-0.01661754	0.001605239	-1.576374							
38.25	-0.02339172	0.0539093	-0.9980927	0.02735189	-0.00937511	-1.350632							
38.3	0.06900024	-0.02142334	-1.002869	-0.06774509	-0.05121804	-1.488056							
38.35	-0.002792358	0.00718689	-0.9952698	0.003967691	-0.02988571	-1.114938							
38.4	0.01133728	-0.002090454	-0.9714966	0.003272974	-0.0328018	-1.04324							
38.45	0.01847839	0.02204895	-0.999649	-0.01975283	-0.01344078	-1.003857							
38.5	0.02787781	-0.00038147	-1.003143	-0.005534084	0.02561492	-0.8981444							
38.55	0.01533508	-0.01792908	-0.9897614	-0.01059736	-9.19E-05	-0.8451875							
38.6	0.05004883	-0.02754211	-1.004288	0.005079018	-0.03052708	-0.7921591							
38.65	-0.006088257	0.03353882	-0.9965057	0.004476605	-0.01398377	-0.5421194							
38.7	0.003723145	-0.007339478	-0.9920654	0.008414952	-0.02756595	-0.5977528							
38.75	0.004989624	-0.009506226	-1.007568	-0.01669883	-0.01422655	-0.4346465							
38.8	0.03392029	-0.02156067	-0.9843597	-0.008183332	-0.000661981	-0.2516839							
38.85	0.005554199	-0.01219177	-0.9900513	0.002651772	-0.003283756	-0.0179515							
38.9	-0.01193237	0.001281738	-0.9915771	-0.01257907	0.000460434	0.003979329							
38.95	-0.008026123	0.004348755	-0.9846802	-0.01136843	0.03734022	0.003163628							
39	0.005844116	-0.009399414	-1.000748	-0.02355449	0.08846938	0.001246426							
39.05	0.007080078	0.003387451	-0.9969025	0.006167574	-0.004434156	-0.01331452							
39.1	0.002929688	0.000457764	-0.9921417	0.006823897	0.02787319	0.006649537							
39.15	0.001037598	0.002365112	-0.9931793	-0.002599961	-0.00437926	-0.00526449							
39.2	0.003051758	0.005355835	-0.9921722	-0.007572386	-0.000771216	-0.001797618							
39.25	-0.002090454	0.001419067	-0.9884186	-0.002790384	0.000456582	0.001710704							
39.3	-0.000167847	-0.000488281	-0.9873657	-0.003764223	0.00155979	-0.007540137							
39.35	-0.00012207	0.000473023	-0.9883423	0.005795327	0.01234634	-0.000447765							
39.4	0.001968384	0.002410889	-0.9912109	-0.005047404	-0.001994892	-0.005265824							
39.45	-0.003067017	0.00340271	-0.986496	-0.007680915	0.006393003	0.001736845							
39.5	-0.001022339	-0.001571655	-0.9951477	0.0179621	0.005230524	0.000711928							
39.55	-0.002044678	0.001403809	-0.9903564	-0.002636074	-0.0103154	-0.004171123							
39.6	-0.003067017	0.00138855	-0.9894104	0.005645184	-0.001889711	0.005206259							
39.65	-0.00112915	0.000473023	-0.9873962	-0.00780098	-0.004281634	0.006266865							
39.7	0.001922607	0.002426147	-0.9892731	0.005835101	-0.007904691	-0.001789077							
39.75	-0.002105713	-0.00151062	-0.9903259	-0.00281068	0.007582864	0.001774095							
39.8	-0.003097534	0.001419067	-0.9874725	0.002354721	-0.000833869	-0.008685858							
39.85	-0.005050659	0.004364014	-0.9855804	-0.01365827	0.001572744	-0.002968727							
39.9	-0.003143311	0.000457764	-0.9864807	0.007012779	0.001624653	-0.000539801							
39.95	0.001983643	0.000411987	-0.9941101	-0.00395986	-0.004343916	-0.000654741							
40	-0.005157471	-0.0025177	-0.9884644	-0.006464668	-0.000756359	0.001677319							
40.05	0.000976563	0.002410889	-0.9902802	-0.001709451	-0.001896821	0.006321148							
40.1	0.00378418	-0.004394531	-0.9911041	-0.001493227	0.00040953	-0.001755332							
40.15	-6.10E-05	0.001434326	-0.9902954	0.002166145	0.000414837	-0.001734927							
40.2	0.00100708	0.002380371	-0.992218	0.003355629	0.006390701	-0.000521241							
40.25	0	0.00138855	-0.9931946	0.001928708	-0.005440215	0.007461945							
40.3	-0.005889893	0.000289917	-0.9962769	0.002015655	0.000478529	0.004045228							
40.35	-0.001083374	-0.000549316	-0.991272	-0.003797031	-0.006765139	-0.006465291							
40.4	-0.001037598	0.001403809	-0.9912872	-0.002523753	0.002735861	-0.008685696							
40.45	-0.001068115	0.000442505	-0.9903107	-0.001365278	0.00156807	-0.006376378							
40.5	-0.001037598	-0.000579834	-0.9932098	0.00327198	-0.006671295	0.002829542							
40.55	0.000991821	0.000411987	-0.9931641	0.000945808	0.00518407	-0.001703298							
40.6	-0.003082275	0.003417969	-0.9855194	-0.001734974	-0.003066697	0.007462091							
40.65	0.001922607	-0.00151062	-0.9931183	-0.004015326	-0.007883178	0.001620884							
40.7	-0.000991821	0.001373291	-0.9932251	-0.005116008	-0.003166527	-0.002970017							
40.75	0.002990723	0.001403809	-0.9940948	0.002194287	0.00517475	-0.002853782							
40.8	0.000976563	0.002410889	-0.9902802	-0.000364369	-0.000736865	0.001705674							
40.85	-0.004974365	0.000350952	-0.9933167	-0.006464799	0.001633882	0.001693035							
40.9	0.002059937	0.004333496	-0.9931641	-0.001370419	0.003946989	-0.006356002							
40.95	0.00088501	0.000473023	-0.988327	-0.004049774	-0.005493458	0.002798466							
41	-0.002029419	0.00138855	-0.9913177	-0.005142592	-0.00910651	-0.001868074							
41.05	-0.003204346	-0.004470825	-0.9893646	0.001074568	-0.003188713	-0.006407553							
41.1	-0.005996704	0.002334595	-0.9894867	0.008202367	0.001644943	0.000617209							
41.15	-0.002044678	0.001403809	-0.9903564	-0.006245489	-0.00201096	-0.006437648							
41.2	-0.002090454	0.000427246	-0.9893646	-0.004020178	0.001647389	0.001714337							
41.25	-0.001098633	0.000442505	-0.9893341	0.001889973	0.004100005	0.008710845							
41.3	0.000961304	-0.001541138	-0.9941254	0.006055062	-0.00796159	-0.009886155							
41.35	0.001831055	-0.002456665	-0.9902191	0.001019974	0.000422831	-0.004025998							
41.4	-0.003967285	0.002349854	-0.9913635	-0.000230241	-0.001948405	-0.002897765							
41.45	0.002044678	0.00038147	-0.9970245	-0.007333721	0.000347381	-0.01101467							
41.5	-0.001068115	0.002410889	-0.9883881	-0.003968197	-0.01024478	0.000531057							
41.55	0.000930786	-0.000549316	-0.9922028	0.002088052	0.00167494	0.001829466							
41.6	-0.003189087	-0.001480103	-0.9864655	-0.01125518	-0.004311764	-0.000552763							
41.65	-0.000106812	-0.000518799	-0.9902802	-0.002810311	-0.004268767	0.002965114							
41.7	-0.001022339	0.00239563	-0.9903259	0.003371274	0.006419368	-0.000374637							
41.75	-0.001052856	0.000427246	-0.991272	-0.001486446	-0.01024631	-0.000508123							
41.8	0.001678467	-0.001358032	-0.9814758	-0.002720818	0.006411707	-0.000363928							
41.85	-6.10E-05	0.002410889	-0.9893188	-0.002592858	0.001609846	-0.005034728							
41.9	0.000778198	-0.004425049	-0.9892578	-0.002671855	-0.00787706	-0.001621224							
41.95	1.53E-05	0.00038147	-0.9951324	-0.003903746	0.006401333	-0.001498869							
42	-0.001113892	0.001449585	-0.9874115	-0.007815751	0.01123936	0.007778637							
42.05	0.001983643	0.003417969	-0.9902496	-0.001465812	0.0135477	-0.001347827							
42.1	0.004989624	0.002410889	-0.9930725	-0.002744305	0.008806191	0.000915746							
42.15	0.001983643	0.00239563	-0.9921875	-0.006396921	0.001660786	0.000830401							
42.2	0.002944946	0.002441406	-0.9902191	-0.01123637	-0.001924763	-0.000309544							
42.25	0.004852295	0.001495361	-0.9882355	-0.007541427	-0.007879741	-0.001500128							
42.3	-0.003005981	0.001358032	-0.9923248	-0.006422223	0.00048429	0.002052404							
42.35	-0.000198364	-0.000473023	-0.9863892	-0.001627485	-0.003046516	0.005588983							
42.4	-0.001190186	-0.002471924	-0.9883575	-0.002605071	0.00400801	-0.003607593							
42.45	-0.001052856	0.000427246	-0.991272	0.00577736	0.004073363	0.002223539							
42.5	0.006881714	0.002487183	-0.9891357	0.007003766	0.004075241	0.002291725							
42.55	0.00378418	0.001556396	-0.9843445	-0.007529343	-0.007878651	-0.001367878							
42.6	0.003082275	0.002349854	-0.9970093	0.01196057	-0.004271141	-7.75E-06							
42.65	0.000854492	0.001480103	-0.9863892	0.003287824	0.007658339	0.004679828							
42.7	0.004745483	-0.00138855	-0.9862518	-0.002608365	-0.01145382	-0.002468023							
42.75	0.001876831	0.001464844	-0.9883118	0.00116342	0.001600739	-0.006956335							
42.8	0.002929688	0.000457764	-0.9921417	-0.003835528	0.0111487	-0.002225313							
42.85	-0.002975464	0.001342773	-0.9932861	-0.007379136	-0.01506967	-0.00595336							
42.9	0.001586914	-0.008270264	-0.985321	0.01333057	-0.04358463	-0.003750896							
42.95	-0.003997803	-0.001586914	-0.9942474	0.04446029	-0.05166769	0.01832925							
43	-0.00428772	-0.01034546	-0.9903259	0.05196122	-0.08383955	0.01229438							
43.05	-0.04446411	0.01072693	-0.9886322	0.06747553	-0.1027391	0.02612312							
43.1	-0.0302887	-0.019104	-1.037613	0.1357034	-0.1434741	-0.0155167							
43.15	-0.07467651	-0.04792786	-1.033737	0.3858758	-0.3517433	-0.059981							
43.2	-0.0266571	-0.08712769	-1.005936	0.7577035	-0.2721896	-0.007419248							
43.25	-0.03259277	-0.1143951	-0.9913177	1.098764	-0.2250701	0.1464562							
43.3	-0.02502441	-0.2112122	-0.9923706	1.259654	-0.2462007	0.1517848							
43.35	-0.1066132	-0.2169189	-0.9848022	1.349577	-0.1864656	0.1632381							
43.4	-0.06974792	-0.2968292	-0.9910431	1.59436	-0.07253167	0.2211622							
43.45	-0.1815643	-0.3350525	-0.9043427	2.006345	0.05946932	0.275551							
43.5	-0.1462402	-0.4501495	-0.8326263	1.970921	-0.05486748	0.007069636							
43.55	-0.1395721	-0.5171967	-0.8028107	1.865931	-0.1181401	-0.2613348							
43.6	-0.08828735	-0.6225739	-0.6782532	2.025366	-0.2015145	-0.4278025							
43.65	-0.06570435	-0.6974335	-0.6605835	2.0674	-0.05727671	-0.4065929							
43.7	-0.05076599	-0.7603455	-0.5489502	1.952861	-0.241481	-0.3614669							
43.75	-0.0712738	-0.815506	-0.4868927	1.707937	-0.2660961	-0.2797517							
43.8	-0.0390625	-0.8854523	-0.4039154	1.590043	-0.1958146	-0.2520022							
43.85	-0.02359009	-0.9086151	-0.3187866	1.526796	0.09792639	-0.1293686							
43.9	-0.03692627	-0.9260559	-0.2237854	1.249602	0.08575834	0.0182244							
43.95	-0.0586853	-0.9408875	-0.2893677	0.9366441	0.3214895	0.08341361							
44	-0.09024048	-0.951004	-0.2153168	0.879213	0.0894476	0.09255795							
44.05	-0.03240967	-0.9807892	-0.07844543	0.80721	0.08019955	0.002992454							
44.1	-0.0879364	-0.9528351	-0.2793732	0.3637526	0.08689592	0.02720097							
44.15	-0.06547546	-0.9736481	-0.09977722	0.5089366	0.001401895	-0.1081283							
44.2	-0.06817627	-0.9645386	-0.1495056	0.6274734	0.09311309	-0.1182074							
44.25	-0.03321838	-0.9852448	-0.0453949	0.6698743	0.04431938	-0.1460538							
44.3	-0.05485535	-0.9723358	-0.08592224	0.5248528	-0.03245119	-0.05847322							
44.35	-0.04013062	-0.9793701	-0.03979492	0.7054883	0.02447828	-0.1090156							
44.4	0.02906799	-0.9875031	0.09814453	0.7747555	0.03061912	-0.09932028							
44.45	-0.03198242	-0.9844666	0.0838623	0.334269	0.02016392	0.132994							
44.5	-0.02996826	-0.9940338	0.02568054	0.1921203	0.02689597	0.1114414							
44.55	-0.07843018	-0.9668274	0.0513916	0.1817293	0.08932357	0.04253525							
44.6	-0.002304077	-0.9973907	0.1177979	0.1491998	0.03239943	-0.06228399							
44.65	-0.05380249	-0.9833527	0.03952026	-0.1384342	-0.002981883	0.0202528							
44.7	-0.0216217	-0.9955902	0.04924011	-0.1333942	0.01321287	-0.03163048							
44.75	-0.04150391	-0.9824829	0.02140808	-0.1175611	-0.01489169	0.01563179							
44.8	-0.02542114	-0.9927673	0.04522705	-0.02101756	0.007793086	0.008277336							
44.85	-0.06236267	-0.9797211	0.0256958	-0.05592105	-0.01103827	0.03683273							
44.9	-0.03025818	-0.9888763	0.0450592	0.02450231	0.003741611	-0.05165737							
44.95	-0.03669739	-0.9853058	0.0254364	-0.02335619	0.002584764	-0.04037005							
45	-0.03305054	-0.993042	0.03045654	-0.02072302	0.004125637	-0.002165898							
45.05	-0.0388031	-0.9932251	0.02156067	-0.01698493	-0.001430526	0.04060831							
45.1	-0.05059814	-0.9824829	0.02893066	0.006999262	-0.007616581	0.01060638							
45.15	-0.03999329	-0.993103	0.03123474	-0.01162802	0.009900166	-0.02288618							
45.2	-0.03471375	-0.9852753	0.02549744	-0.005083618	-0.004516927	-0.03917709							
45.25	-0.02154541	-0.9926758	0.04824829	0.03131845	0.006281239	-0.03188875							
45.3	-0.04457092	-0.9864502	0.02134705	-0.0278159	-0.00985117	0.03588903							
45.35	-0.02157593	-0.9926453	0.05020142	0.02453791	0.007691455	-0.006462399							
45.4	-0.04055786	-0.9834442	0.0223999	-0.02601618	0.005422572	0.01405649							
45.45	-0.03900146	-0.9930878	0.03126526	-0.03421097	0.002914332	0.001262829							
45.5	-0.03956604	-0.984436	0.02050781	-0.05829461	0.00515201	-0.01041833							
45.55	-0.04444885	-0.9835358	0.01937866	-0.03846298	-0.004442988	-0.02196365							
45.6	-0.03363037	-0.9933014	0.01100159	-0.02164544	0.00518716	-0.0125271							
45.65	-0.0328064	-0.9862518	0.02653503	0.0475656	-0.00055132	-0.000628263							
45.7	-0.0322113	-0.9889069	0.04403687	0.02907795	0.007813404	0.00628522							
45.75	-0.04594421	-0.9931641	0.03108215	-0.04186698	0.000636722	0.01392357							
45.8	-0.04048157	-0.9854736	0.0165863	-0.09374627	-0.004392726	-0.007231425							
45.85	-0.03764343	-0.9933167	0.0128479	-0.07596759	0.004914011	-0.03365604							
45.9	-0.03039551	-0.9934387	-0.001525879	-0.05429741	0.007421602	-0.0231012							
45.95	-0.03149414	-0.9933777	0.004272461	-0.01053871	-0.00435847	-0.01718225							
46	-0.02479553	-0.9931641	0.01512146	0.05485038	-0.002910398	0.00054671							
46.05	-0.03993225	-0.9931488	0.02833557	0.05455232	0.01741404	0.01113993							
46.1	-0.04338074	-0.9855499	0.01261902	-0.0195174	0.001723749	-0.000980094							
46.15	-0.02961731	-0.9932861	0.009170532	-0.05736027	0.006435706	1.00E-05							
46.2	-0.02568054	-0.9932251	0.01025391	-0.04178063	-0.000586239	0.01044433							
46.25	-0.03416443	-0.9866486	-0.002639771	0.02514698	0.003106698	0.01667999							
46.3	-0.04434204	-0.9855804	0.0116272	0.09932657	0.002104271	0.02517967							
46.35	-0.04438782	-0.9825745	0.0174408	0.1061702	0.000673752	-0.002559202							
46.4	-0.03344727	-0.9937744	0.04890442	0.08923753	0.01487533	-0.008306551							
46.45	-0.04460144	-0.9854126	0.02426147	-0.02176497	0.01393224	0.03734235							
46.5	-0.02915955	-0.9929504	0.03443909	-0.04024069	-0.003102589	-0.001090478							
46.55	-0.05677795	-0.9860077	-0.0100708	-0.1079116	0.005321634	0.02058726							
46.6	-0.02885437	-0.9931488	0.0198822	-0.03691022	0.006118835	-0.03453726							
46.65	-0.04295349	-0.9848328	-0.006774902	-0.07432282	-0.007936751	-0.003638655							
46.7	-0.03184509	-0.9931641	0.02078247	0.01592015	-0.003036934	-0.00309222							
46.75	-0.05023193	-0.9936523	-0.001083374	-0.000591605	0.003107348	0.02116402							
46.8	-0.03366089	-0.9873047	0.0196991	0.03067159	0.00289372	-0.007583354							
46.85	-0.04429626	-0.9846191	0.01065063	-0.00410283	0.01137935	0.0154363							
46.9	-0.02891541	-0.993103	0.02279663	0.0139338	0.009892645	-0.02033731							
46.95	-0.02958679	-0.9873199	0.01493835	-0.03805826	0.00052052	0.00825192							
47	-0.03659058	-0.9933472	0.01092529	-0.03450214	0.0112676	0.01183824							
47.05	-0.05070496	-0.9840393	-0.0138092	-0.01377072	0.01248963	0.01196417							
47.1	-0.02958679	-0.9933014	0.008209229	0.0482404	-0.002076156	-0.02713757							
47.15	-0.04139709	-0.9855194	0.01268005	0.05403196	-0.007912839	-0.01558952							
47.2	-0.02519226	-0.9929047	0.0345459	0.04326221	0.00389737	-0.02364026							
47.25	-0.0362854	-0.9835968	0.007949829	-0.03923725	-0.004329557	0.004760563							
47.3	-0.04055786	-0.9933929	0.01081848	-0.03258419	-0.002127497	-0.01600689							
47.35	-0.04789734	-0.9849091	-0.007888794	-0.05522012	-0.001932442	0.009320175							
47.4	-0.03173828	-0.9932251	0.01591492	0.02001546	-0.005622753	-0.02034014							
47.45	-0.03952026	-0.9874268	0.01565552	-0.003872485	-0.0030392	0.006157773							
47.5	-0.03811646	-0.9856873	-0.001800537	-0.008543115	0.007590662	-0.001870035							
47.55	-0.02867126	-0.9932556	0.01113892	0.03078567	0.02067809	-0.01191871							
47.6	-0.04124451	-0.9876099	0.003005981	0.02186135	0.00056953	0.00288767							
47.65	-0.03178406	-0.9931946	0.01786804	0.07953436	0.001766543	-0.008319958							
47.7	-0.03201294	-0.9890442	0.03433228	0.06231318	-0.007728027	-0.002717785							
47.75	-0.02793884	-0.9950714	0.02088928	0.001175383	-0.00301026	0.002769802							
47.8	-0.05595398	-0.9859009	-0.00227356	-0.06813517	-0.00156641	0.04060327							
47.85	-0.0344696	-0.9854431	0.01383972	0.005268293	0.007575325	-0.01327621							
47.9	-0.03918457	-0.9866638	0.000137329	-0.009736607	0.002917564	0.000480214							
47.95	-0.0271759	-0.9929199	0.03450012	0.02391501	0.001561919	-0.02476163							
48	-0.03146362	-0.9854279	0.01197815	-0.0207943	-0.000615503	0.005048387							
48.05	-0.02693176	-0.9930725	0.02285767	-0.006417884	0.01139099	0.01449219							
48.1	-0.0330658	-0.9930267	0.03141785	-0.06322474	0.009181806	0.04195812							
48.15	-0.06227112	-0.9827576	0.01890564	-0.1601319	-0.000708423	0.01703568							
48.2	-0.04295349	-0.9851837	0.03982544	-0.2667207	-0.002722559	-0.0564545							
48.25	-0.02784729	-0.9931335	0.01895142	-0.4591167	-0.01144274	-0.06797548							
48.3	-0.02822876	-0.9822388	-0.04335022	-0.6438289	-0.01749009	-0.04823301							
48.35	-0.02165222	-0.9742737	-0.1112518	-0.7982366	-0.03294811	-0.02146525							
48.4	-0.01591492	-0.9747162	-0.1490021	-0.6770453	0.005494783	0.006185669							
48.45	-0.02285767	-0.9727936	-0.146286	-0.61333	0.001146758	0.04120714							
48.5	-0.0398407	-0.9616241	-0.1730652	-0.6667395	0.003768782	0.07679856							
48.55	-0.05638123	-0.9546967	-0.2270203	-0.7875274	0.01549349	0.07739177							
48.6	-0.03605652	-0.9398956	-0.2343445	-0.8745283	0.02894819	0.0006746							
48.65	-0.04873657	-0.9145966	-0.3077545	-1.113455	-0.04522397	-0.003638574							
48.7	-0.04173279	-0.894989	-0.3825378	-1.263852	-0.1563815	-0.03324772							
48.75	-0.03251648	-0.8599243	-0.4019775	-1.317247	-0.06453773	-0.000317059							
48.8	-0.05174255	-0.8349762	-0.4949951	-1.525519	-0.1248081	0.08012062							
48.85	-0.05209351	-0.7588043	-0.5781555	-1.594676	0.03717102	0.1078157							
48.9	-0.0806427	-0.708847	-0.6230164	-1.660409	0.0322672	0.1027785							
48.95	-0.0743866	-0.6472931	-0.7078247	-1.807061	0.05867897	0.02122043							
49	-0.04740906	-0.6006927	-0.7579651	-1.773007	0.07459655	-0.06637184							
49.05	-0.0378418	-0.5293884	-0.8476105	-1.802493	-0.03720818	-0.05598112							
49.1	-0.03559875	-0.4340363	-0.8900146	-1.640894	0.01641847	0.05762261							
49.15	-0.0405426	-0.3876801	-0.9303284	-1.601968	-0.03185268	0.1083047							
49.2	-0.05609131	-0.3108063	-0.9507294	-1.397622	0.06107985	0.2190319							
49.25	-0.0921936	-0.2403107	-0.990097	-1.338678	0.05153221	0.2054468							
49.3	-0.04914856	-0.2069397	-1.018311	-1.219693	0.05739045	0.04419288							
49.35	-0.06584167	-0.1694489	-0.9821167	-0.9536752	0.03593002	-0.004273084							
49.4	-0.02476501	-0.1321411	-1.007492	-0.8262686	0.04348658	0.02079749							
49.45	-0.05857849	-0.08041382	-0.9893494	-0.7719735	0.05488772	0.08830316							
49.5	-0.02172852	-0.07678223	-1.039902	-0.7155001	0.09411034	0.07393258							
49.55	-0.04450989	-0.0362854	-0.9941254	-0.4649048	0.0860235	0.1909411							
49.6	-0.06446838	-0.00958252	-0.9569397	-0.3026609	0.1453358	0.1437896							
49.65	-0.03289795	-0.007797241	-0.9949951	-0.1535033	0.1525356	-0.005715935							
49.7	0.04359436	-0.02557373	-1.071548	-0.1834871	0.3128349	-0.3017555							
49.75	-0.01329041	-0.008422852	-0.9847412	-0.04306648	0.05730574	-0.02795136							
49.8	-0.000442505	-0.01419067	-0.9901886	-0.04200638	0.06092984	-0.02212812							
49.85	-0.01121521	0.000473023	-0.9789124	-0.05409324	0.09738738	0.0637467							
49.9	-0.001190186	-0.004440308	-0.9902802	-0.01103341	0.01244646	0.006527786							
49.95	0.001831055	-0.000488281	-0.9882965	-0.001212164	0.005299894	0.004204132							
50	-0.001037598	-0.001556396	-0.9941711	-0.003595205	0.002894785	0.001855824							
50.05	0.001785278	-0.002441406	-0.9882812	-0.009508082	-0.00193729	-0.005162214							
50.1	0.001922607	-0.00151062	-0.9931183	0.004899208	0.007679147	0.003102346							
50.15	0.001876831	-0.001480103	-0.9911804	-0.000824396	0.002784458	-0.01085647							
50.2	-0.001159668	-0.003463745	-0.9902954	-0.001286414	-0.003009567	0.0064419							
50.25	0.000930786	-0.000549316	-0.9922028	-0.00963963	-0.01151703	-0.001757483							
50.3	0.00579834	-0.001419067	-0.9891357	0.007474187	0.01347934	-0.003749777							
50.35	-0.002029419	0.000396729	-0.9922791	-0.003562865	0.008723173	-0.001540715							
50.4	0.001937866	0.000442505	-0.9921722	0.002641107	-0.006769627	-0.005117244							
50.45	0.000854492	0.001480103	-0.9863892	0.002417324	-0.000746765	0.003034286							
50.5	-0.001174927	-0.002487183	-0.9893188	0.005946918	0.002870518	0.007714454							
50.55	3.05E-05	-0.000610352	-0.9970703	0.001378789	0.001567829	-0.003892104							
50.6	0.00177002	-0.001419067	-0.9863281	0.006008497	0.000467827	0.005379244							
50.65	0.001846313	-0.002471924	-0.9911804	0.00119581	-0.005510509	0.002984044							
50.7	0.001907349	0.000473023	-0.9902344	0.008502418	0.006401066	0.003132491							
50.75	0.002929688	0.001449585	-0.9911804	1.56E-06	-0.000763153	0.001863676							
50.8	-0.001998901	-0.00062561	-0.9951935	-0.001189853	0.001604856	0.000721241							
50.85	0.000900269	-0.000518799	-0.9902649	0.006004233	0.000467308	0.005378513							
50.9	0.003860474	0.00050354	-0.9891968	-0.007138524	0.006303272	-0.005053853							
50.95	0.001876831	0.003479004	-0.9853821	-0.002470025	-0.003136038	0.002984383							
51	0.000808716	-0.004425049	-0.9902344	-0.004732514	0.006317445	-0.003883993							
51.05	-0.001068115	0.000442505	-0.9903107	-0.00237251	-0.009118141	-0.000540279							
51.1	0.001052856	0.002349854	-0.9941559	-0.001348556	0.001657001	0.00650439							
51.15	0.004974365	0.001419067	-0.9940491	-0.003317419	-0.00564347	-0.0109267							
51.2	-0.001022339	-0.000595093	-0.9941864	-0.00729041	-0.001974147	0.000653845							
51.25	-0.00012207	-0.004486084	-0.9941254	-4.62E-05	0.01114842	0.003126472							
51.3	0.000808716	-0.002456665	-0.9883118	0.003912606	-0.004377754	-0.006186784							
51.35	-0.001098633	0.001434326	-0.9883881	-0.005966447	-0.007921402	-0.001646527							
51.4	0.003128052	0.000320435	-1.001846	-0.004598441	-0.000831999	-0.007359085							
51.45	0.004821777	-0.000473023	-0.9891815	0.002501326	-0.000747393	0.000779319							
51.5	0.00177002	-0.000442505	-0.9853668	0.00615276	0.007588412	0.000875032							
51.55	-0.000106812	-0.000518799	-0.9902802	-0.01438487	-0.004406378	-0.00628925							
51.6	0.00189209	0.003463745	-0.9863586	0.001158101	-0.001897647	0.005388546							
51.65	-0.003051758	0.000411987	-0.9903717	-0.002317542	-0.001966231	-0.00157282							
51.7	0.0027771	-0.000442505	-0.9863129	-0.004615367	0.01344796	-0.007230331							
51.75	-9.16E-05	-0.0025177	-0.9931641	-0.001041427	0.003964704	-0.003826445							
51.8	-0.00012207	-0.001480103	-0.9902649	2.21E-05	0.005209168	0.001975618							
51.85	0.002914429	0.000473023	-0.9911652	-0.003540262	0.001601084	-0.001548175							
51.9	-0.001174927	-0.002487183	-0.9893188	-0.002441639	-0.001925671	0.003053607							
51.95	0.001983643	0.003417969	-0.9902496	0.002560335	-0.000770452	-0.001535902							
52	0.003829956	0.0025177	-0.985321	-0.001263469	0.008796134	0.004313821							
52.05	0.002883911	0.003479004	-0.9863281	-0.001318082	0.000487523	0.006552069							
52.1	0.004837036	-0.002456665	-0.9920807	-0.003575899	0.005180502	-0.000359525							
52.15	0.002929688	-0.000534058	-0.993103	-0.004885621	0.00163907	0.00307156							
52.2	0.002059937	0.001358032	-0.9970398	0.008751089	-0.001982834	-0.004983867							
52.25	0.004852295	-0.000473023	-0.9901581	-0.002281577	-0.009119402	-0.002796211							
52.3	0.001953125	0.001419067	-0.9921875	0.004730597	-0.005397036	0.01006222							
52.35	1.53E-05	0.00038147	-0.9951324	0.001188987	0.001696645	0.005479245							
52.4	0.001861572	0.001480103	-0.9873352	0.002463414	0.01000826	0.003247915							
52.45	0.001937866	0.000442505	-0.9921722	-0.000887943	0.006354085	-0.007181267							
52.5	0.002868652	-0.000488281	-0.9902039	-0.001225234	0.000518921	0.005489885							
52.55	0.001937866	0.000442505	-0.9921722	0.001339063	0.005262256	0.00210364							
52.6	-0.001022339	0.00138855	-0.9922638	-0.002283782	-0.000703966	0.000872301							
52.65	0.004989624	0.004394531	-0.9911499	-0.002160637	0.000443893	-0.003744393							
52.7	0.001937866	0.001434326	-0.9912109	0.007427026	0.01361877	0.00338857							
52.75	0.000930786	-0.000549316	-0.9922028	0.003811463	-0.000678414	0.002081836							
52.8	-0.000137329	-0.003479004	-0.9922028	-0.000873967	-0.009078673	-0.004962065							
52.85	0.004760742	-0.004379272	-0.9901276	-0.000886028	-0.004304048	-0.003745929							
52.9	-4.58E-05	-0.000564575	-0.9931793	-0.003359218	-0.000726771	-0.002570308							
52.95	-0.000244141	-0.002426147	-0.9863739	-0.002110208	0.000454616	-0.003709717							
53	0.002838135	0.000518799	-0.9872894	-0.005777747	-0.003107753	-0.002593111							
53.05	0.005859375	-0.001449585	-0.9920502	0.001535765	0.001664301	-0.002509386							
53.1	-0.01350403	0.01092529	-0.9994659	0.01526032	0.07172659	-0.1521965							
53.15	0.006637573	-0.001296997	-0.9813385	0.04007024	0.07162702	-0.1670918							
53.2	0.0163269	-0.007019043	-0.9781342	0.006615503	0.1063019	-0.01193593							
53.25	0.0287323	-0.001251221	-0.9962921	-0.03441929	0.2254736	0.01436956							
53.3	0.03561401	-0.000167847	-0.9932098	-0.007607403	0.267165	0.01490307							
53.35	0.04652405	0.000946045	-0.9919434	-0.01463645	0.2920407	0.003520856							
53.4	0.07113647	-0.003616333	-0.9893188	0.003487292	0.5229247	0.004559358							
53.45	0.1235962	-0.002990723	-0.9850159	0.015489	1.016316	-0.04527177							
53.5	0.1840668	-0.005279541	-0.9882202	0.04388928	1.255369	-0.06376912							
53.55	0.2917938	-0.02009583	-0.9434357	0.1436278	1.76796	-0.1106252							
53.6	0.3446198	0.002151489	-0.9324646	0.1255025	2.305156	-0.3117819							
53.65	0.5342102	-0.05490112	-0.8229828	0.2469063	2.344747	-0.4275974							
53.7	0.6204376	0.004058838	-0.8016663	0.2479468	2.065644	-0.368808							
53.75	0.6585693	-0.006439209	-0.7422638	0.06348042	1.649892	-0.2579136							
53.8	0.7513275	-0.004455566	-0.6736908	-0.1044439	1.747513	-0.09367763							
53.85	0.7492981	0.01107788	-0.6067963	-0.1304745	1.045285	-0.1071363							
53.9	0.8072662	0.0372467	-0.5995941	-0.1528536	1.235333	-0.1414004							
53.95	0.8548126	0.01325989	-0.53302	-0.1425077	1.811461	0.1415442							
54	0.8918304	0.000518799	-0.4221191	-0.06527211	1.782893	0.1278307							
54.05	0.8892212	-0.004730225	-0.4464569	-0.2846656	1.522375	0.1728393							
54.1	0.976944	-0.001846313	-0.232254	-0.03063799	2.456925	0.04852813							
54.15	1.000366	0.009246826	-0.1549377	-0.09792499	2.26654	0.06030951							
54.2	1.006516	-0.001800537	-0.03804016	0.05850621	2.154844	0.05206534							
54.25	1.006851	0.01417542	0.05900574	-0.02230643	1.830819	0.02553822							
54.3	0.9796906	0.009796143	0.118576	-0.03090306	1.446864	0.08213858							
54.35	0.9752197	-0.002197266	0.1768646	0.01179291	0.7898069	0.05211714							
54.4	0.9878845	0.03120422	0.1779327	0.153322	-0.1732725	-0.01715372							
54.45	0.9845734	-0.00038147	0.1576538	-0.002357377	-0.05903868	0.008471094							
54.5	0.9960022	0.003372192	0.1375275	-0.001284034	-0.1410693	0.01582981							
54.55	0.9928894	-0.002532959	0.1374969	-0.001889662	-0.1353283	-0.007260313							
54.6	1.00116	0.001312256	0.1250458	-0.001906165	-0.118663	-0.007110484							
54.65	0.9963226	0.003173828	0.1219788	-0.006129104	0.02666488	0.01037941							
54.7	0.9910431	0.000350952	0.1335297	0.00615475	0.1027946	0.005352861							
54.75	0.9970398	-0.001617432	0.1288605	0.005874053	0.06838885	0.01660768							
54.8	0.9949493	-0.001571655	0.1336517	-0.004354262	-0.04370837	-0.008762212							
54.85	0.9921265	-0.000701904	0.1277313	0.000259198	-0.02457612	0.000692475							
54.9	0.9958954	-0.003509521	0.1346436	0.001366861	-0.003122019	0.00436309							
54.95	0.9940643	-0.001647949	0.1297302	-0.01465258	-0.02926304	0.01097753							
55	0.9990692	-0.001617432	0.1269531	-7.65E-05	-0.03279003	0.01334021							
55.05	0.9952393	0.001235962	0.1239014	0.000854835	-0.02198462	0.02385515							
55.1	0.992157	-0.001739502	0.1248322	-0.003467146	0.01470042	0.002182352							
55.15	0.9922028	0.001235962	0.1267395	0.006199365	0.01117622	0.005674468							
55.2	0.9922028	0.001235962	0.1267395	0.006199365	0.01117622	0.005674468							
55.25	0.9989777	-0.000549316	0.1327667	0.001446465	0.04443762	0.00016492							
55.3	0.9941406	0.000305176	0.1277771	0.000304694	-0.01398538	-0.001555096							
55.35	0.9960938	-0.003646851	0.124939	0.002721051	-0.02349301	-0.000471873							
55.4	0.9962311	-0.000732422	0.1220093	-0.005865887	-0.003265621	0.00082044							
55.45	0.992157	-0.000717163	0.1267548	0.002787241	0.006225438	-0.003673448							
55.5	0.9951324	-0.000671387	0.1268311	-0.002485647	-0.0043577	0.01124105							
55.55	0.9910583	-0.003631592	0.1286926	0.00383241	0.0276992	0.002311758							
55.6	0.9929657	-0.006546021	0.1287842	-0.004911304	0.01466851	0.01024323							
55.65	0.9950562	-0.003616333	0.1268463	0.007540225	-0.02822623	0.001824981							
55.7	0.9920349	-0.005615234	0.1267853	0.008612065	-0.002001513	0.006696147							
55.75	0.9962616	0.001220703	0.1229706	-0.004439374	-0.02950821	-0.006352261							
55.8	0.9911194	-0.003677368	0.1257629	-0.003479247	-0.01633323	0.003026746							
55.85	0.9942627	0.001220703	0.1238708	0.003691973	0.0443992	0.007088179							
55.9	0.9959564	-0.00553894	0.1298065	-0.003384852	-0.0187468	-0.000466102							
55.95	0.9892273	-0.004745483	0.1208954	-0.03619711	-0.04857807	-0.004390497							
56	0.9963074	-0.003768921	0.1152191	-0.03032281	-0.1115469	0.0054832							
56.05	0.9933624	-0.004821777	0.1122589	-0.01222322	-0.03055554	0.01094546							
56.1	0.9942474	-0.004730225	0.1180878	0.001389404	0.06338322	0.001461692							
56.15	0.9952087	-0.003723145	0.1190796	0.008666826	0.07411487	0.002756313							
56.2	0.9961853	-0.00668335	0.1171875	0.01006004	0.05264352	-0.003215801							
56.25	0.9883118	-0.003829956	0.1179199	-0.006978386	0.009774349	-0.003699508							
56.3	0.9971924	-0.002700806	0.1210938	0.003837435	0.01698325	0.002210706							
56.35	0.9942932	-0.003768921	0.1161346	-0.002373357	-0.00331584	0.006592295							
56.4	0.9972534	-0.002746582	0.1181641	0.005102569	0.02876296	-1.69E-05							
56.45	0.9962769	0.000228882	0.121048	0.006389873	0.02160352	-0.002388577							
56.5	1.001221	-0.003692627	0.116333	0.002650109	0.007348455	0.000931228							
56.55	0.9952087	-0.005706787	0.1171417	0.009709298	0.01934171	0.0103341							
56.6	0.999176	-0.002670288	0.1211395	0.0026513	0.04065681	7.65E-05							
56.65	0.9911499	-0.006668091	0.1209564	-0.002302963	0.02044878	0.003335643							
56.7	0.9942322	-0.002731323	0.1210022	0.004798788	0.01934285	0.01146305							
56.75	0.9970703	-0.005615234	0.1230469	-0.000862378	0.0156153	-0.004799265							
56.8	0.9921417	-0.00769043	0.1190338	0.007700093	-0.01293415	-0.005010294							
56.85	0.9962158	-0.003723145	0.1191101	-0.003442892	-0.000999928	0.000820727							
56.9	0.9960327	-0.003601074	0.1278534	0.00767643	0.01324403	-0.004772165							
56.95	0.9990234	-0.004562378	0.1259918	0.001438912	0.02993598	-2.76E-05							
57	0.9941864	-0.005691528	0.1190643	0.005420067	0.00950958	-0.01178642							
57.05	0.9939423	-0.00553894	0.130722	0.001381347	0.01795811	0.002150864							
57.1	0.992157	-0.000717163	0.1267548	0.002881019	0.01659935	-0.008280482							
57.15	0.9920959	-0.001693726	0.1277466	0.002694615	0.01666103	-0.001340799							
57.2	0.9981384	-0.000656128	0.1259308	0.007690536	-0.0107342	-0.005032874							
57.25	0.99617	-0.000701904	0.1249237	-0.002187635	-0.01200749	-0.000488256							
57.3	0.9971619	0.000289917	0.1249542	0.009777881	0.003553904	0.007817278							
57.35	0.9970856	-0.001647949	0.1269073	-0.004762199	-7.13E-05	0.004232958							
57.4	0.9989014	-0.006469727	0.1289368	-0.002280819	-0.04422255	0.003830266							
57.45	0.9962311	-0.000732422	0.1220093	-0.006883261	-0.006253621	-0.007418697							
57.5	0.9932556	-0.00177002	0.1209869	-0.002156415	-0.04545606	-0.000806764							
57.55	0.9951477	-0.003677368	0.121994	0.004101926	-0.0491916	-0.006602432							
57.6	1.004211	0.000305176	0.120285	0.001821133	-0.0885072	-0.01159967							
57.65	0.9984131	-0.000839233	0.1123505	-0.007173398	-0.06338361	0.004774508							
57.7	1.00235	-0.008743286	0.1037598	-0.01437442	-0.01949777	-0.00066168							
57.75	0.995575	-0.001983643	0.1035461	-0.01097343	-0.008700269	0.008710694							
57.8	0.9944305	-0.002868652	0.1112823	0.002924107	0.007811793	-0.009572523							
57.85	0.9963837	-0.003829956	0.1113434	-0.007192586	0.02441352	0.003243148							
57.9	0.9965973	0.002029419	0.1083984	-0.001696638	0.02778173	-0.01983418							
57.95	0.9944	-0.002853394	0.1122589	0.008742404	0.004185264	0.000833313							
58	0.9983215	-0.003768921	0.113327	0.01103021	0.06358142	0.004852793							
58.05	0.993454	9.16E-05	0.1131897	-0.000859046	-0.004352916	-0.00508476							
58.1	0.9953308	0.001174927	0.1190491	0.001599567	0.008730206	-0.006109226							
58.15	0.9963226	-0.004776001	0.1132965	0.009079157	-0.0437044	-0.01117299							
58.2	0.999527	0.002090454	0.109436	-0.01302382	-0.05082686	-0.005575604							
58.25	0.9925079	3.05E-05	0.1102448	-0.005396276	-0.1211113	-0.01542792							
58.3	0.9964905	-0.001907349	0.108429	-0.04080815	-0.2235578	-0.01192505							
58.35	1.000046	-0.000244141	0.08226013	-0.1381247	-0.3748818	-0.0184664							
58.4	0.9950867	-0.001937866	0.03453064	-0.2086863	-0.5464158	-0.02156918							
58.45	1.001938	0.004516602	-0.001281738	-0.1998404	-0.6155071	-0.03140288							
58.5	1.004395	-0.003738403	-0.03321838	-0.01405461	-0.8445542	0.005727666							
58.55	0.9863586	0.004501343	-0.06193542	-0.01000104	-0.9767368	-0.005862012							
58.6	0.9888306	-0.01034546	-0.1482849	0.0166398	-1.264947	-0.03725259							
58.65	0.9940186	0.006164551	-0.2337799	0.002530823	-1.40672	-0.05365702							
58.7	0.9532623	-0.001815796	-0.2834167	0.01938807	-1.394312	-0.000233344							
58.75	0.9337616	0.01000977	-0.3335876	0.0305927	-1.583532	-0.004202413							
58.8	0.8951111	0.009277344	-0.4269714	-0.005587165	-1.862892	0.03239621							
58.85	0.8814545	-0.01182556	-0.6021271	-0.05205172	-1.729679	0.03334732							
58.9	0.8186035	0.004623413	-0.5630951	0.01001929	-0.6957001	0.01415189							
58.95	0.8010559	0.001251221	-0.582016	0.03293132	-0.7158012	0.0245091							
59	0.7790375	0.003463745	-0.6156769	0.006110515	-0.9775784	0.03008265							
59.05	0.7327271	-0.001846313	-0.6819763	-0.0429916	-1.219055	0.04728625							
59.1	0.6908875	-0.002822876	-0.7200165	-0.01515873	-1.193176	0.009497162							
59.15	0.6253204	-0.005126953	-0.7625885	-0.01853665	-1.40742	0.004063407							
59.2	0.5585175	0.003005981	-0.8285828	-0.00646939	-1.991084	0.06824837							
59.25	0.4711456	-0.002487183	-0.8746185	-0.04100215	-2.333639	0.09039985							
59.3	0.3360291	-0.0124054	-0.917038	-0.1141676	-2.020512	0.1275475							
59.35	0.2135925	-0.0718689	-0.727478	-0.07722099	-1.968229	0.1131871							
59.4	0.1631622	-0.008453369	-0.987793	-0.0820022	-2.315247	0.1632291							
59.45	0.07676697	0.01187134	-1.00386	-0.01660117	-1.637646	0.2102335							
59.5	0.05540466	0.007034302	-0.9830017	0.01955698	-0.8863856	0.1177566							
59.55	0.01907349	0.01237488	-0.9917908	-0.01505834	-0.356871	0.1223699							
59.6	0.005233765	0.02412415	-0.9796295	-0.01574232	-0.2249976	0.09926757							
59.65	0.01506042	-0.00819397	-0.9198303	0.000150417	-0.07947771	0.003495677							
59.7	0.1536713	-0.02801514	-1.123978	0.1911882	0.8758191	-0.1834572							
59.75	0.01182556	0.005554199	-0.9851379	0.01847769	-0.01522938	0.000702904							
59.8	0.0198822	0.003585815	-0.9926758	0.000202234	-0.002180886	-0.000436594							
59.85	0.01486206	0.006515503	-0.9870148	0.002175543	-0.000833012	0.01694073							
59.9	0.01301575	0.003448486	-0.9967499	0.001331811	-0.005722669	0.0030086							
59.95	0.01097107	0.006439209	-0.990036	0.01124631	-0.008141616	-0.002742346							
60	0.01394653	0.005493164	-0.9909058	0.003804676	-0.006929005	0.001856918							
60.05	0.01783752	0.003601074	-0.9898224	0.003729068	0.008559709	0.004310954							
60.1	0.01693726	0.006469727	-0.9918213	-0.003390532	-0.004607163	-0.002788532							
60.15	0.01283264	0.00553894	-0.986084	0.00264421	-0.002199471	-0.000418741							
60.2	0.01982117	0.003631592	-0.9897766	0.005018628	0.001392099	0.001941156							
60.25	0.01583862	0.002593994	-0.9898834	0.005088263	-0.006960972	-0.000447881							
60.3	0.01298523	0.005447388	-0.9928741	-0.001023568	0.008499674	-0.000341246							
60.35	0.01197815	0.00642395	-0.9919586	0.002704514	0.007378192	-0.000292269							
60.4	0.01300049	0.006408691	-0.9928894	0.000215289	-0.006886244	0.001878393							
60.45	0.0128479	0.003540039	-0.9889832	0.004053562	0.001386322	-0.004966685							
60.5	0.01197815	0.004440308	-0.9938812	0.002750841	-0.01048535	-0.001611179							
60.55	0.01493835	0.005493164	-0.9918518	0.001304812	0.000295909	0.006576883							
60.6	0.01493835	0.005493164	-0.9918518	-0.009511131	-0.00691383	0.000667109							
60.65	0.01580811	0.001617432	-0.9898834	0.004053284	0.0013845	-0.00496696							
60.7	0.01190186	0.004501343	-0.9900055	0.000304817	-0.002159891	-0.001549246							
60.75	0.01583862	0.003585815	-0.9889069	-0.000851984	-0.003372777	-0.003880673							
60.8	0.01594543	0.008468628	-0.9889526	0.001744305	-0.004611317	-0.009661865							
60.85	0.01490784	0.004501343	-0.9918518	-0.004666138	-0.003326084	0.001883278							
60.9	0.01589966	0.002548218	-0.9927826	-0.003537599	-0.005673005	0.005338599							
60.95	0.01487732	0.003555298	-0.99086	-0.000818959	-0.00576286	-0.005059281							
61	0.01477051	0.001602173	-0.9889221	0.0002788	-0.008099238	-0.000447039							
61.05	0.01599121	0.002487183	-0.9976501	0.007903468	-0.003431989	-0.01193148							
61.1	0.009933472	0.00642395	-0.98909	0.007685929	-0.003359244	-0.003833976							
61.15	0.01289368	0.004501343	-0.989975	-0.005697721	-0.005770735	-0.005086898							
61.2	0.0118103	0.002563477	-0.9880524	0.002640994	0.008585325	0.002031055							
61.25	0.01292419	0.004470825	-0.9919128	0.000299288	0.001410566	-0.001518133							
61.3	0.01486206	0.003570557	-0.9898987	0.000216856	-0.003223527	0.004262971							
61.35	0.01383972	0.005554199	-0.9860535	-0.00710355	0.000335255	0.004254335							
61.4	0.01185608	0.006500244	-0.9861298	-0.003226685	-0.000922007	-0.003834073							
61.45	0.01686096	0.003570557	-0.9908142	-0.004529002	-0.01398277	-0.000489065							
61.5	0.0138855	0.005523682	-0.9880066	0.000268387	0.007466793	0.002045839							
61.55	0.01489258	0.006484985	-0.9889526	-0.006914505	-0.005675849	-0.002740811							
61.6	0.01286316	0.004501343	-0.9889984	0.005135159	-0.01512459	0.003023974							
61.65	0.01583862	0.003585815	-0.9889069	0.007624233	-0.000860995	0.000853647							
61.7	0.01687622	0.003555298	-0.9917908	-0.000674624	0.009753323	-0.008351701							
61.75	0.01097107	0.005462646	-0.9909821	-0.004602166	-0.00324875	0.001921062							
61.8	0.016922	0.001525879	-0.9966431	0.002673686	0.008673521	0.00322609							
61.85	0.01173401	0.001617432	-0.9860992	-0.002195915	-0.002043497	0.003101555							
61.9	0.01283264	0.001556396	-0.990921	-0.004420425	0.000260752	-0.004988217							
61.95	0.01185608	0.003540039	-0.9890137	-0.000718677	-0.012834	-0.006243748							
62	0.01300049	0.005432129	-0.9938507	-0.002258117	-0.00321161	0.005404206							
62.05	0.007751465	0.001586914	-0.9852142	0.000329179	0.005070942	-0.000291087							
62.1	0.0128479	0.002548218	-0.9899597	0.003069211	-0.01881859	-0.01090498							
62.15	0.01292419	0.00050354	-0.9957733	0.002835794	0.000296146	-0.002634409							
62.2	0.01191711	0.003509521	-0.9919281	0.003967398	-0.00443017	0.000799377							
62.25	0.01293945	0.007446289	-0.9890137	0.00409722	-0.00555557	-0.001485793							
62.3	0.01397705	0.007461548	-0.9899597	-0.002098165	-0.001963431	0.001983082							
62.35	0.01679993	0.001602173	-0.9908142	0.006259819	-0.01021682	0.008895681							
62.4	0.01490784	0.005523682	-0.9899139	-0.002011102	-0.01390319	-0.001601563							
62.45	0.02073669	0.000686646	-0.9897308	0.000168735	-0.001915363	0.00777448							
62.5	0.01506042	-0.004516602	-1.009262	-0.003460026	-0.000742818	0.006607851							
													
													
													
													
													
													
													
													
													
													
													
													
													
													
													
													
													
													
													
													
													
													
													
													
													
													
													
													
													
													
													
													
													
													
													
													
													
													
													
													
													
													
													
													
													
													
													
													
													
													
													
													
													
													
													
													
													
													
													
													
													
													
													
													
													
													
													
													
													
													
													

